t;ax;ay;az;gx;gy;gz;v;h;accelStatus;baroStatus
s;m/s^2;m/s^2;m/s^2;deg/s;deg/s;deg/s;m/s;m;;
0.006;0.2;-0.16;-0.65;-2;-4;-11;0.0;0.00;1;1
0.029;0.16;-0.02;-0.54;-2;-5;-15;0.0;0.00;1;1
0.055;-0.06;-0.03;-0.82;0;-3;-7;0.0;-6.76;1;1
0.079;-0.06;0.09;-1.02;0;-1;-3;0.0;-7.02;1;1
0.212;0.3;-0.27;-0.23;-14;-3;0;0.0;0.67;1;1
0.238;1.22;-1.34;-0.01;-9;1;0;0.0;0.67;1;1
0.263;1.07;0.07;0.44;2;4;-32;0.0;0.67;1;1
0.287;-0.34;-0.6;-0.47;7;5;0;0.0;0.46;1;1
0.312;-0.44;-0.63;-1.08;1;1;1;0.0;-8.69;1;1
0.337;-0.28;-0.36;-0.77;0;0;2;0.0;-8.65;1;1
0.362;-0.1;-0.53;-0.87;-1;-3;-6;0.0;-8.65;1;1
0.396;-0.03;-0.41;-0.76;0;-6;-3;0.0;-8.56;1;1
0.42;0.22;-0.53;-0.4;2;-7;-1;0.0;-8.48;1;1
0.445;0.01;-0.03;-0.93;3;-9;-12;0.0;-8.39;1;1
0.47;0.35;-0.28;-0.68;3;-11;-9;0.0;-8.28;1;1
0.495;0.47;-0.63;-0.46;4;-8;-2;0.0;-8.28;1;1
0.52;0.47;-0.62;-0.93;4;-4;-3;0.0;-8.16;1;1
0.545;0.34;0.09;-0.67;2;-1;-12;0.0;-8.03;1;1
0.57;0.3;-0.03;-0.6;0;1;-7;0.0;-7.91;1;1
0.594;0.2;-0.08;-0.73;-1;3;1;0.0;-7.91;1;1
0.62;0.38;-0.57;-1.28;-1;7;-5;0.0;-7.76;1;1
0.645;0.24;0.09;-0.47;-3;8;-10;0.0;-7.63;1;1
0.669;0.43;-0.04;-0.49;-2;6;-9;0.0;-7.54;1;1
0.695;0.25;-0.63;-0.88;-1;3;-1;0.0;-7.54;1;1
0.719;-0.11;-1.13;-0.89;3;7;16;0.0;-7.42;1;1
0.755;-0.65;-0.38;-0.44;11;1;-4;0.0;-7.32;1;1
0.781;-0.28;-0.92;-0.9;10;-6;-20;0.0;-7.21;1;1
0.814;0.29;-0.44;-0.85;13;-12;-7;0.0;-7.09;1;1
0.843;0.53;0.15;-1.1;16;-8;0;0.0;-7.01;1;1
0.872;0.59;0.59;-1.13;13;-1;3;0.0;-6.92;1;1
1.01;0.08;0.09;-0.35;14;6;-8;0.0;0.17;1;1
1.037;0.48;0.27;-0.6;8;7;4;0.0;0.17;1;1
1.061;1.24;0.45;0.06;-2;3;13;0.0;0.17;1;1
1.086;0.32;-0.53;-0.4;-10;3;22;0.0;0.27;1;1
1.11;-3.73;-0.06;-2.9;-8;9;-14;0.0;-5.98;1;1
1.135;-2.05;1.3;-3.75;12;21;-46;0.0;-5.96;1;1
1.161;0.69;0.17;-2.84;35;28;-46;0.0;-5.96;1;1
1.193;2.07;-0.66;-0.49;53;18;1;0.0;-5.95;1;1
1.218;0.24;-0.33;-0.16;40;6;9;0.0;-5.93;1;1
1.243;0.86;0.61;1.65;25;-4;8;0.0;-5.90;1;1
1.267;0.78;-0.17;2.04;2;-14;31;0.0;-5.88;1;1
1.293;-0.69;0.7;1.41;-24;-16;27;0.0;-5.88;1;1
1.317;-1.1;1.07;0.36;-40;-11;8;0.0;-5.86;1;1
1.342;0.3;1.35;0.62;-43;-6;14;0.0;-5.83;1;1
1.366;-0.55;0.45;-0.37;-39;-3;21;0.0;-5.80;1;1
1.392;-0.74;0.31;-1.22;-34;1;4;0.0;-5.80;1;1
1.417;-0.68;0.2;-1.07;-26;6;1;0.0;-5.76;1;1
1.441;0.26;1.23;1.93;-16;1;2;0.0;-5.72;1;1
1.466;-0.3;0.6;0.07;-10;-1;1;0.0;-5.69;1;1
1.491;-0.18;0.0;-0.04;-6;2;-6;0.0;-5.69;1;1
1.524;2.48;-0.45;4.82;-3;-6;0;0.0;-5.66;1;1
1.549;0.16;0.01;0.18;-8;-3;5;0.0;-5.62;1;1
1.573;0.76;-0.93;-0.13;-9;0;4;0.0;-5.61;1;1
1.598;0.05;-0.07;-0.29;1;2;7;0.0;-5.56;1;1
1.622;-0.81;0.7;-1.0;8;8;1;0.0;-5.56;1;1
1.647;-0.08;-0.01;-0.65;-1;18;-3;0.0;-5.53;1;1
1.675;0.04;-1.11;-1.46;-7;21;5;0.0;-5.51;1;1
1.7;-1.17;-1.23;-1.09;0;15;11;0.0;-5.47;1;1
1.725;-1.1;0.65;0.35;3;2;2;0.0;-5.47;1;1
1.749;-1.2;-0.28;-0.54;-5;-6;-1;0.0;-5.43;1;1
1.775;-1.01;-0.54;-1.0;-13;-16;-4;0.0;-5.42;1;1
1.803;-0.38;-0.22;-0.57;1;-13;-2;0.0;-5.39;1;1
1.827;0.07;0.22;-1.4;8;4;0;0.0;-5.39;1;1
1.86;-0.63;-0.59;-1.58;1;16;-5;0.0;-5.36;1;1
1.885;-0.75;-0.11;-1.34;5;14;-8;0.0;-5.33;1;1
1.91;-0.68;0.0;-0.39;13;15;-3;0.0;-5.31;1;1
1.935;-1.1;-0.41;-0.89;10;15;-6;0.0;-5.29;1;1
1.959;-1.01;-0.26;-1.53;3;15;1;0.0;-5.29;1;1
1.985;-1.51;0.02;-1.03;-2;10;1;0.0;-5.26;1;1
2.01;-1.33;-0.61;-0.96;-5;4;-9;0.0;-5.23;1;1
2.042;-0.43;-0.56;-1.03;-9;-5;-1;0.0;-5.21;1;1
2.072;0.25;0.01;-1.97;1;-8;25;0.0;-5.17;1;1
2.102;-0.84;-0.8;-0.3;11;-3;6;0.0;-5.15;1;1
2.13;-1.37;0.22;-1.85;1;10;-21;0.0;-5.12;1;1
2.158;-0.2;0.63;-0.11;-4;13;9;0.0;-5.12;1;1
2.191;-0.73;-0.54;-0.27;-5;10;20;0.0;-5.08;1;1
2.216;-0.88;0.29;-1.25;-4;11;19;0.0;-5.06;1;1
2.241;-1.22;0.22;-2.13;1;12;31;0.0;-5.04;1;1
2.267;-1.9;-0.08;-2.02;2;10;30;0.0;-4.99;1;1
2.291;-1.69;-0.16;-1.74;11;1;26;0.0;-4.99;1;1
2.316;-1.4;-0.41;-3.04;17;-7;21;0.0;-4.98;1;1
2.341;-0.81;-0.26;-3.12;9;-13;31;0.0;-4.96;1;1
2.366;-1.13;-0.15;-3.45;2;-17;33;0.0;-4.92;1;1
2.392;-0.95;0.45;-3.14;0;-24;30;0.0;-4.92;1;1
2.416;-0.44;-0.25;-3.35;-6;-29;30;0.0;-4.89;1;1
2.442;-0.59;-0.12;-3.03;-12;-29;30;0.0;-4.88;1;1
2.466;-0.56;-0.43;-3.57;-12;-31;16;0.0;-4.86;1;1
2.503;-0.79;0.32;-4.11;-9;-27;8;0.0;-4.85;1;1
2.528;-1.2;-0.03;-3.79;-9;-11;22;0.0;-4.85;1;1
2.553;-0.63;0.07;-3.94;-9;-9;19;0.0;-4.85;1;1
2.578;-0.01;-0.5;-3.52;-7;-22;13;0.0;-4.82;1;1
2.602;0.23;0.0;-4.03;-4;-16;23;0.0;-4.82;1;1
2.628;-0.02;-0.92;-3.64;0;-3;22;0.0;-4.82;1;1
2.653;0.21;-1.17;-3.2;9;-4;4;0.0;-4.82;1;1
2.678;0.44;-0.35;-2.01;13;-10;4;0.0;-4.82;1;1
2.703;1.09;-0.02;-1.31;0;-13;6;0.0;-4.82;1;1
2.727;1.07;-0.97;-0.9;-13;-19;-4;0.0;-4.82;1;1
2.753;0.65;-0.95;-0.36;-18;-20;0;0.0;-4.82;1;1
2.778;0.67;-0.88;1.15;-20;-21;6;0.0;-4.84;1;1
2.827;1.65;-2.42;3.17;-20;-26;-19;0.0;-4.85;1;1
2.851;3.01;-1.67;4.62;-6;-30;-9;0.0;-4.86;1;1
2.877;1.92;-2.17;5.44;5;-4;5;0.0;-4.88;1;1
2.905;1.13;-2.35;8.8;9;6;4;0.2112;-4.89;1;1
2.927;3.68;-3.63;13.35;11;-37;10;0.5583;-4.89;1;1
2.953;5.06;-0.21;15.04;30;-62;0;0.9493;-4.92;1;1
2.977;4.19;-0.79;16.24;39;-38;-36;1.3391;-4.95;1;1
3.003;3.27;-1.65;20.57;12;-26;-15;1.8739;-4.96;1;1
3.028;3.19;-0.52;23.07;-3;1;34;2.4507;-4.96;1;1
3.054;3.76;-0.4;23.68;0;44;24;3.0664;-4.98;1;1
3.079;3.99;-1.46;25.2;0;22;19;3.6963999999999997;-4.98;1;1
3.112;-1.1;3.72;28.44;1;-6;15;4.6349;-4.98;1;1
3.146;2.41;2.45;36.0;53;81;-46;5.8229;-4.98;1;1
3.175;5.79;0.84;32.98;114;126;-84;6.8123000000000005;-4.96;1;1
3.205;14.02;-4.26;31.06;38;-7;2;7.7440999999999995;-4.94;1;1
3.234;13.57;3.7;8.6;-50;-198;42;7.9935;-4.89;1;1
3.262;-2.39;0.06;-9.95;-51;-247;60;7.7149;-4.89;1;1
3.286;-1.88;0.45;-8.68;-53;-250;58;7.5066;-4.84;1;1
3.319;-1.93;0.09;-9.56;-61;-250;64;7.2006;-4.75;1;1
3.344;-1.92;0.56;-9.94;-68;-250;71;6.942200000000001;-4.66;1;1
3.478;-2.7;0.86;-9.26;-127;-245;130;5.7105999999999995;1.91;1;1
3.503;-2.64;1.15;-9.47;-143;-236;146;5.4644;1.91;1;1
3.535;-2.7;1.16;-9.77;-166;-218;168;5.1518;2.03;1;1
3.561;-2.36;0.85;-9.82;-184;-199;185;4.8964;2.03;1;1
3.585;-2.37;1.35;-9.81;-200;-181;196;4.6610000000000005;-3.28;1;1
3.611;-1.94;0.99;-9.6;-216;-161;206;4.4113999999999995;-3.24;1;1
3.639;-1.7;1.04;-9.85;-231;-139;209;4.1356;-3.22;1;1
3.663;-1.34;1.26;-10.12;-241;-117;211;3.8926999999999996;-3.19;1;1
3.689;-1.48;0.86;-10.4;-250;-95;210;3.6223;-3.19;1;1
3.713;-1.16;0.86;-10.05;-250;-74;207;3.3811;-3.18;1;1
3.739;-1.33;0.66;-10.2;-250;-53;204;3.1159;-3.14;1;1
3.765;-1.19;0.9;-10.24;-250;-32;200;2.8599;-3.12;1;1
3.797;-1.35;0.53;-10.44;-250;-3;197;2.5154;-3.08;1;1
3.822;-1.03;0.61;-10.46;-250;17;195;2.2539;-3.08;1;0
3.848;-1.21;0.53;-10.37;-250;37;192;1.9843000000000002;-3.04;1;1
3.873;-1.07;0.7;-10.45;-250;58;190;1.723;-3.00;1;1
3.898;-1.16;0.52;-10.51;-250;78;188;1.4603;-2.98;1;1
3.923;-1.08;0.52;-10.58;-248;98;186;1.1958;-2.98;1;1
3.948;-1.2;0.42;-10.83;-241;117;185;0.925;-2.92;1;1
3.976;-0.91;0.45;-10.83;-231;136;184;0.6218;-2.90;1;1
3.999;-0.82;0.79;-10.97;-221;155;189;0.36950000000000005;-2.87;1;1
4.024;-1.84;0.55;-10.15;-209;169;190;0.1157;-2.87;1;1
4.057;-0.02;-0.22;-11.34;-190;191;189;-0.2585;-2.86;1;1
4.082;-1.49;0.83;-10.3;-175;204;189;-0.516;-2.85;1;1
4.107;-1.79;1.24;-9.66;-158;218;187;-0.7575;-2.82;1;1
4.132;-1.8;0.88;-10.2;-140;230;182;-1.0125;-2.80;1;1
4.16;0.27;0.21;-10.7;-120;240;175;-1.3121;-2.80;1;1
4.186;-0.99;0.61;-10.1;-101;245;170;-1.5747;-2.79;1;1
4.21;-2.85;1.78;-9.34;-83;248;164;-1.7989;-2.77;1;1
4.236;-0.18;0.33;-10.56;-63;250;150;-2.0734;-2.76;1;1
4.261;-1.35;-0.59;-18.26;-49;250;250;-2.5117;-2.76;1;1
4.286;1.01;-0.91;-11.15;9;250;250;-2.8016;-2.75;1;1
4.319;-1.61;-1.56;-10.33;112;229;250;-3.1424000000000003;-2.73;1;1
4.344;-0.92;-0.32;-7.3;96;183;147;-3.3249;-2.73;1;1
4.377;-1.6;-0.67;-18.08;122;170;6;-3.9216;-2.72;1;1
4.407;-2.62;0.03;-16.45;117;177;-35;-4.4151;-2.73;1;1
4.436;-0.85;-0.03;-6.1;109;143;-76;-4.592;-2.76;1;1
4.466;-0.92;-0.33;-10.0;107;137;-105;-4.8919999999999995;-2.80;1;1
4.494;-0.92;0.16;-9.22;108;128;-127;-5.1501;-2.80;1;1
4.519;-0.76;0.06;-10.18;108;129;-135;-5.4046;-2.85;1;1
4.544;-0.85;0.71;-9.57;110;131;-130;-5.6438999999999995;-2.87;1;1
4.57;-0.98;1.04;-9.95;109;138;-121;-5.9026;-2.90;1;1
4.603;-1.12;1.15;-9.67;102;148;-105;-6.212000000000001;-2.94;1;1
4.628;-1.86;2.3;-9.93;94;153;-98;-6.4702;-2.94;1;1
4.654;-2.24;1.96;-10.71;88;157;-82;-6.7487;-3.00;1;1
4.679;-1.34;0.78;-9.67;95;160;-75;-6.990399999999999;-3.06;1;1
4.704;-2.42;1.74;-10.42;99;162;-65;-7.250900000000001;-3.12;1;1
4.729;-3.02;1.81;-9.63;103;167;-46;-7.4917;-3.12;1;1
4.755;-3.12;1.65;-10.22;113;170;-23;-7.7574000000000005;-3.18;1;1
4.779;-3.27;2.06;-9.36;130;172;-4;-7.982;-3.24;1;1
4.805;-3.87;2.08;-9.32;151;170;19;-8.224400000000001;-3.32;1;1
4.831;-3.96;2.37;-9.0;172;166;42;-8.458400000000001;-3.32;1;1
4.855;-4.48;2.81;-9.23;193;162;74;-8.6799;-3.39;1;1
4.889;75.2;129.49;60.74;250;250;250;-6.6147;-3.47;1;1
4.915;-76.53;-14.07;-101.63;-250;-250;250;-9.257100000000001;-3.60;1;1
4.94;30.21;42.42;-110.53;250;157;250;-12.020299999999999;-3.57;1;1
4.965;6.37;-3.19;-16.53;-6;-250;250;-12.433599999999998;-3.57;1;1
4.993;-5.89;-8.01;-51.04;-21;-228;250;-13.8627;-3.73;1;1
5.019;2.52;14.37;-3.25;-223;-129;250;-13.9472;-3.91;1;1
5.045;-3.13;-0.94;-15.54;-216;-105;250;-14.351300000000002;-4.06;1;1
5.07;-1.02;3.54;-4.8;-212;-102;250;-14.466500000000002;-4.22;1;1
5.095;20.77;21.05;0.73;-95;-148;250;-14.4475;-4.22;1;1
5.144;-1.33;-3.34;-16.79;-94;-103;243;-15.270199999999999;-4.48;1;1
5.169;-2.03;-32.67;-1.33;-219;-62;250;-15.3034;-4.60;1;1
5.194;-2.19;2.31;-12.51;-219;12;213;-15.6162;-4.60;1;1
5.22;0.35;4.94;-9.68;-200;6;199;-15.867899999999999;-4.72;1;1
5.245;-1.53;8.3;-15.04;-165;20;183;-16.2439;-4.82;1;1
5.271;5.44;-1.4;-7.3;-188;-13;196;-16.433699999999998;-4.92;1;1
5.297;-3.78;1.0;-9.82;-173;-1;152;-16.6792;-4.92;1;1
5.321;0.21;1.56;-12.24;-155;7;148;-16.9852;-5.00;1;1
5.35;-43.59;-93.74;-166.69;-250;250;250;-21.819200000000002;-5.09;1;1
5.375;-5.53;10.75;-10.75;-250;250;-134;-22.0879;-5.16;1;1
5.409;-5.21;40.06;9.09;-26;-114;-155;-21.7789;-5.25;1;1
5.435;-20.1;13.35;-42.93;-153;87;-140;-22.895;-5.35;1;1
5.46;10.32;-12.0;0.1;-250;-97;-74;-22.8925;-5.35;1;1
5.494;10.02;3.5;-11.53;-250;-111;-67;-23.2846;-5.42;1;1
5.524;-8.15;-16.04;-23.47;-250;-199;-83;-23.988699999999998;-5.49;1;1
5.554;-10.94;-3.61;-9.16;-250;-250;-101;-24.2635;-5.56;1;1
5.583;-57.33;-98.33;-166.69;135;250;-250;-29.0975;-5.63;1;1
5.612;-2.84;-10.7;-15.69;86;-31;250;-29.5368;-5.68;1;1
5.637;1.62;-7.99;-14.8;68;28;125;-29.921599999999998;-5.73;1;1
5.662;9.77;4.5;-10.46;-60;-17;8;-30.1831;-5.73;1;1
5.695;-6.07;6.24;-9.98;4;15;-44;-30.5124;-5.80;1;1
5.721;9.43;-5.67;-7.34;-33;-7;-26;-30.7033;-5.86;1;1
5.746;6.75;-1.05;-11.13;1;-3;-2;-30.970399999999998;-5.92;1;1
5.771;6.89;-0.16;-10.44;-7;-6;-45;-31.241799999999998;-5.99;1;1
5.798;6.07;-2.21;-11.54;-8;10;-78;-31.5534;-5.99;1;1
5.824;9.2;-0.27;-13.08;-12;6;-103;-31.8935;-6.05;1;1
5.85;8.06;0.61;-11.21;-16;2;-119;-32.185;-6.10;1;1
5.874;9.68;2.52;-12.28;-13;1;-102;-32.4797;-6.15;1;1
5.9;12.01;-2.36;-11.02;1;-3;-23;-32.7662;-6.15;1;1
5.925;9.76;1.85;-11.31;3;1;22;-33.037600000000005;-6.19;1;1
5.958;8.63;0.9;-12.05;4;0;27;-33.4473;-6.22;1;1
5.983;8.47;0.81;-11.78;3;0;20;-33.7418;-6.26;1;1
6.008;8.61;0.71;-11.81;2;0;14;-34.0371;-6.29;1;1
6.033;8.43;0.69;-11.77;1;0;9;-34.3313;-6.29;1;1
6.058;8.47;0.59;-11.85;0;0;2;-34.6276;-6.34;1;1
6.083;8.5;0.64;-11.81;0;0;-4;-34.9228;-6.38;1;1
6.109;8.42;0.75;-11.83;0;0;-9;-35.2304;-6.40;1;1
6.133;8.63;0.9;-11.94;-1;0;-11;-35.516999999999996;-6.40;1;1
6.159;8.7;0.89;-11.86;0;0;-10;-35.8253;-6.43;1;1
6.183;8.69;1.14;-11.9;0;0;-7;-36.1109;-6.46;1;1
6.209;8.58;1.22;-11.83;0;0;-4;-36.4185;-6.47;1;1
6.242;8.58;1.17;-11.85;0;0;-1;-36.8096;-6.51;1;1
6.267;8.61;1.2;-11.81;0;0;1;-37.1048;-6.51;1;1
6.292;8.56;1.08;-11.9;0;0;3;-37.4023;-6.53;1;1
6.318;8.56;1.09;-11.88;0;0;3;-37.7112;-6.55;1;1
6.342;8.56;1.01;-11.81;0;0;2;-37.9946;-6.57;1;1
6.368;8.46;1.02;-11.86;0;0;0;-38.303000000000004;-6.57;1;1
6.392;8.54;0.98;-11.87;0;0;-1;-38.5879;-6.57;1;1
6.418;8.54;1.15;-11.88;0;0;-2;-38.8967;-6.59;1;1
6.442;8.59;1.08;-11.89;0;0;-2;-39.1821;-6.57;1;1
6.468;8.57;1.16;-11.88;0;0;-1;-39.491;-6.57;1;1
6.493;8.58;1.2;-11.82;0;0;0;-39.786500000000004;-6.59;1;1
6.518;8.61;1.17;-11.83;0;0;2;-40.0822;-6.61;1;1
6.551;8.57;1.1;-11.93;0;0;2;-40.4759;-6.62;1;1
6.577;8.55;1.01;-11.83;0;0;1;-40.7835;-6.63;1;1
6.617;8.59;1.07;-11.83;0;0;0;-41.2567;-6.62;1;1
6.646;8.52;1.1;-11.86;0;0;-1;-41.5888;-6.63;1;1
6.675;8.58;1.14;-11.97;0;0;0;-41.9479;-6.66;1;1
6.814;8.56;1.14;-11.76;0;0;0;-43.5708;-1.36;1;1
6.841;8.43;1.22;-11.77;0;0;0;-43.900299999999994;-1.36;1;1
6.866;8.59;1.11;-11.91;0;0;0;-44.198100000000004;-1.78;1;1
6.891;8.54;1.17;-11.81;0;0;1;-44.4933;-1.29;1;0
6.917;8.49;1.04;-11.83;0;0;1;-44.8009;-7.45;1;1
6.942;8.53;1.11;-11.8;0;0;1;-45.0841;-7.45;1;1
6.975;8.55;1.06;-11.84;0;0;0;-45.4867;-7.45;1;1
7.0;8.59;1.03;-11.83;0;0;0;-45.782399999999996;-7.44;1;1
7.025;8.55;1.15;-11.8;0;0;0;-46.0774;-7.44;1;0
7.051;8.51;1.16;-11.82;0;0;0;-46.3847;-7.40;1;1
7.075;8.56;1.12;-11.92;0;0;0;-46.6708;-7.39;1;1
7.101;8.47;1.19;-11.78;0;0;1;-46.9771;-7.36;1;1
7.125;8.53;1.08;-11.85;0;0;0;-47.2615;-7.36;1;1
7.151;8.57;1.1;-11.84;0;0;0;-47.569300000000005;-7.35;1;1
7.179;8.62;1.17;-11.94;0;0;0;-47.9037;-7.35;1;1
7.203;8.58;1.07;-11.89;0;0;0;-48.18899999999999;-7.33;1;1
7.229;8.58;1.16;-11.8;0;0;0;-48.4958;-7.33;1;1
7.263;8.58;1.13;-11.88;0;0;0;-48.8997;-7.32;1;1
7.287;8.59;1.12;-11.86;0;0;0;-49.1844;-7.31;1;1
7.313;8.59;1.04;-11.89;0;0;0;-49.493500000000004;-7.28;1;1
7.338;8.53;1.15;-11.83;0;0;0;-49.789300000000004;-7.26;1;1
7.363;8.56;1.16;-11.85;0;0;0;-50.0855;-7.26;1;1
7.389;8.59;1.15;-11.84;0;0;0;-50.3934;-7.25;1;1
7.414;8.53;1.12;-11.8;0;0;0;-50.6884;-7.23;1;1
7.439;8.6;1.08;-11.83;0;0;0;-50.9841;-7.22;1;1
7.464;8.59;1.08;-11.89;0;0;0;-51.281400000000005;-7.22;1;1
7.492;8.56;1.12;-11.9;0;0;0;-51.6146;-7.18;1;0
7.518;8.59;1.14;-11.85;0;0;0;-51.922700000000006;-7.16;1;1
7.543;8.61;1.04;-11.9;0;0;0;-52.220200000000006;-7.16;1;1
7.591;8.37;1.47;-12.06;0;0;0;-52.799;-7.13;1;1
7.617;8.04;0.99;-11.98;0;0;0;-53.1105;-7.12;1;1
7.643;8.46;0.89;-11.91;0;0;0;-53.4202;-7.11;1;1
7.668;8.65;1.13;-11.91;0;0;0;-53.7179;-7.11;1;1
7.693;8.57;1.14;-11.82;0;0;0;-54.013400000000004;-7.11;1;1
7.718;8.54;1.17;-11.83;0;0;0;-54.309200000000004;-7.08;1;1
7.744;8.65;1.12;-11.87;0;0;0;-54.617799999999995;-7.08;1;1
7.769;8.54;1.13;-11.87;0;0;1;-54.9145;-7.06;1;1
7.794;8.58;1.08;-11.85;0;0;0;-55.2108;-7.06;1;1
7.82;8.6;1.04;-11.84;0;0;0;-55.5186;-7.03;1;1
7.852;8.58;1.1;-11.84;0;0;0;-55.8975;-7.02;1;1
7.894;8.55;1.11;-11.88;0;0;0;-56.396499999999996;-7.03;1;1
7.924;8.54;1.15;-11.84;0;0;0;-56.7517;-7.02;1;1
7.952;8.61;1.22;-11.95;0;0;0;-57.0863;-7.01;1;1
7.976;8.42;1.09;-11.91;0;0;0;-57.3721;-6.99;1;1
8.002;8.37;1.36;-11.87;0;0;0;-57.680699999999995;-6.98;1;1
8.027;8.73;1.09;-11.94;0;0;0;-57.9792;-6.98;1;0
8.052;8.52;1.15;-11.97;0;0;0;-58.2785;-6.98;1;1
8.077;8.45;1.06;-11.82;0;0;0;-58.574;-6.98;1;1
8.102;8.58;1.17;-11.83;0;0;1;-58.8697;-6.97;1;1
8.127;8.55;1.06;-11.89;0;0;1;-59.167;-6.97;1;0
8.153;8.61;1.15;-11.92;0;0;0;-59.47689999999999;-6.97;1;1
8.177;8.54;1.06;-11.89;0;0;0;-59.762299999999996;-6.97;1;1
8.211;8.61;1.17;-11.8;0;0;0;-60.163500000000006;-6.95;1;1
8.235;8.57;1.13;-11.85;0;0;0;-60.4479;-6.95;1;1
8.261;8.5;1.08;-11.83;0;0;0;-60.755500000000005;-6.95;1;1
8.289;8.56;1.11;-11.84;0;0;1;-61.086999999999996;-6.95;1;1
8.313;8.52;1.1;-11.86;0;0;0;-61.3716;-6.97;1;1
8.339;8.52;1.15;-11.77;0;0;0;-61.677600000000005;-6.97;1;1
8.363;8.58;1.13;-11.81;0;0;0;-61.961099999999995;-6.97;1;1
8.389;8.58;1.2;-11.85;0;0;0;-62.2692;-6.95;1;1
8.414;8.56;1.19;-11.81;0;0;0;-62.5644;-6.93;1;1
8.439;8.6;1.18;-11.84;0;0;1;-62.8604;-6.93;1;1
8.464;8.53;1.12;-11.83;0;0;1;-63.1562;-6.93;1;1
8.498;8.5;1.11;-11.87;0;0;0;-63.5479;-6.91;1;1
8.522;8.55;1.16;-11.86;0;0;0;-63.84439999999999;-6.91;1;1
8.547;8.62;1.16;-11.79;0;0;0;-64.1391;-6.91;1;1
8.572;8.63;1.2;-11.82;0;0;0;-64.4346;-6.89;1;1
8.597;8.51;1.12;-11.87;0;0;1;-64.73140000000001;-6.89;1;1
8.623;8.54;1.08;-11.9;0;0;1;-65.0408;-6.88;1;1
8.647;8.58;1.16;-11.83;0;0;0;-65.3247;-6.88;1;1
8.673;8.56;1.08;-11.77;0;0;0;-65.63069999999999;-6.86;1;1
8.697;8.53;1.14;-11.83;0;0;0;-65.91460000000001;-6.86;1;1
8.723;8.55;1.18;-11.97;0;0;0;-66.2259;-6.86;1;1
8.747;6.2;0.31;-12.13;0;2;-4;-66.517;-6.86;1;1
8.781;5.06;1.69;-12.47;5;4;-81;-66.941;-6.86;1;1
8.806;8.11;-2.95;-10.5;4;7;-63;-67.2035;-6.88;1;1
8.831;10.38;2.06;-13.31;2;2;19;-67.5362;-6.88;1;1
8.857;6.99;1.8;-13.49;7;-22;22;-67.887;-6.89;1;1
8.885;8.91;4.07;-10.33;25;6;-8;-68.1762;-6.88;1;1
8.91;11.02;5.61;-11.0;9;-20;-33;-68.4512;-6.89;1;1
8.936;10.15;3.62;-11.01;15;-21;-50;-68.7264;-6.89;1;1
8.969;2.45;5.66;30.82;8;-134;-56;-67.6786;-6.89;1;1
8.998;16.13;3.29;-10.55;-9;5;-22;-67.9845;-6.89;1;1
9.028;11.52;3.73;-13.16;-12;-32;-8;-68.3793;-6.89;1;0
9.059;11.97;6.23;-12.22;-6;-27;-40;-68.7581;-6.89;1;1
9.095;11.91;5.4;-13.78;-11;-17;-50;-69.2542;-6.91;1;1
9.123;12.44;3.35;-11.92;-5;-47;-26;-69.58800000000001;-6.89;1;1
9.149;10.39;4.38;-11.9;0;-78;-33;-69.8974;-6.89;1;1
9.174;10.2;5.01;-13.32;9;-90;-40;-70.2304;-6.88;1;1
9.199;12.62;5.7;-16.9;14;-71;-57;-70.6529;-6.88;1;1
9.225;11.97;3.24;-15.23;20;-44;-49;-71.0488;-6.88;1;1
9.25;10.47;4.65;-15.4;33;-56;-15;-71.4338;-6.86;1;1
9.276;10.19;5.43;-15.89;16;-59;-30;-71.847;-6.85;1;1
9.301;9.61;5.43;-17.01;-5;-76;-64;-72.2722;-6.85;1;1
9.327;10.7;4.91;-17.37;0;-80;-41;-72.7239;-6.83;1;1
9.36;10.24;5.84;-16.01;4;-57;-20;-73.2522;-6.83;1;1
9.385;6.64;5.38;-16.4;-15;-54;-45;-73.6622;-6.81;1;1
9.411;6.18;4.11;-14.95;-23;-44;-54;-74.0509;-6.78;1;1
9.437;6.39;3.51;-17.48;-10;-45;-21;-74.5054;-6.78;1;1
9.462;5.69;3.47;-15.48;2;-41;12;-74.8924;-6.75;1;1
9.488;3.38;3.0;-11.11;5;-36;13;-75.1812;-6.72;1;1
9.513;2.85;2.17;-13.77;1;-39;18;-75.52550000000001;-6.69;1;1
9.538;4.97;2.61;-14.93;-1;-13;44;-75.8987;-6.69;1;1
9.564;3.9;3.42;-15.08;-2;7;73;-76.2908;-6.69;1;1
9.589;3.3;3.59;-15.03;-1;-6;82;-76.6666;-6.66;1;1
9.623;2.95;2.92;-14.1;-15;-19;40;-77.146;-6.62;1;1
9.649;2.84;1.89;-13.65;-16;-11;62;-77.5009;-6.57;1;1
9.783;5.48;3.47;-16.67;14;20;134;-79.7346;-0.66;1;1
9.808;4.42;4.26;-15.37;48;30;101;-80.1035;-0.66;1;1
9.833;4.45;1.41;-14.56;37;17;76;-80.4821;-0.66;1;1
9.859;8.01;0.28;-16.25;16;-8;90;-80.9046;-0.63;1;1
9.884;7.56;1.11;-16.93;2;-42;106;-81.3278;-7.03;1;1
9.91;5.59;2.28;-14.63;-21;-62;95;-81.70819999999999;-7.02;1;1
9.935;3.97;2.51;-14.57;-43;-79;50;-82.0725;-6.99;1;1
9.96;-8.36;5.3;-9.67;-7;-5;-2;-82.3142;-6.99;1;1
9.985;6.77;-1.27;-15.66;-13;1;25;-82.7057;-6.97;1;1
10.041;4.17;0.18;-13.75;-1;-13;60;-83.4757;-6.89;1;1
10.066;5.81;0.49;-16.91;-6;-20;41;-83.8985;-6.89;1;1
10.092;12.45;3.7;-17.64;-17;15;36;-84.35709999999999;-6.86;1;1
10.118;9.14;-0.68;-18.57;-42;-10;38;-84.8399;-6.83;1;1
10.143;6.47;0.38;-17.05;-29;-32;50;-85.26620000000001;-6.79;1;1
10.169;5.86;-0.84;-16.46;-6;-20;53;-85.69409999999999;-6.78;1;1
10.202;4.47;-0.14;-17.14;-5;-9;94;-86.2598;-6.73;1;1
10.231;7.84;-0.84;-18.03;22;-26;120;-86.7826;-6.73;1;1
10.261;16.12;1.03;-17.86;52;48;101;-87.3184;-6.71;1;1
10.291;6.29;-3.44;-16.25;26;34;91;-87.80590000000001;-6.69;1;1
10.326;3.88;-2.11;-16.16;-1;66;78;-88.3715;-6.65;1;0
10.352;6.05;0.42;-16.01;3;18;46;-88.7878;-6.62;1;1
10.378;3.44;-4.86;-14.76;-38;-26;21;-89.1716;-6.59;1;1
10.403;5.17;-2.64;-11.36;-69;-11;-20;-89.4442;-6.55;1;1
10.428;5.82;0.16;-16.75;-112;12;-32;-89.8797;-6.55;1;1
10.453;7.21;-3.2;-18.68;-112;3;-28;-90.3467;-6.51;1;1
10.479;4.28;-1.71;-16.86;-91;-4;-34;-90.785;-6.46;1;1
10.504;5.97;-0.12;-17.41;-70;3;-66;-91.22030000000001;-6.45;1;1
10.529;7.11;-1.4;-17.91;-41;10;-66;-91.6681;-6.45;1;1
10.555;10.18;-5.52;-18.07;9;75;-37;-92.1379;-6.40;1;1
10.588;4.64;0.89;-15.48;40;59;-5;-92.6487;-6.38;1;1
10.613;7.69;-1.8;-16.97;47;61;-25;-93.073;-6.35;1;1
10.639;8.05;-1.12;-16.99;40;55;-33;-93.51469999999999;-6.30;1;1
10.663;7.57;-3.11;-16.11;19;26;-12;-93.90129999999999;-6.30;1;1
10.689;7.05;-1.61;-15.74;3;0;4;-94.3106;-6.28;1;1
10.715;7.32;0.28;-16.94;0;-4;-9;-94.751;-6.25;1;1
10.742;6.79;1.04;-17.47;14;-3;-49;-95.2227;-6.22;1;1
10.768;6.85;-0.71;-17.02;16;-13;-61;-95.6652;-6.22;1;1
10.795;6.73;-3.23;-16.3;3;-36;-15;-96.1053;-6.19;1;1
10.821;6.59;-0.76;-15.86;0;-46;16;-96.5177;-6.18;1;1
10.854;6.33;-0.08;-16.15;2;-40;-10;-97.05059999999999;-6.16;1;1
10.879;6.92;-1.58;-16.33;-3;-41;14;-97.4589;-6.15;1;1
10.905;4.35;-1.43;-16.01;-6;-40;59;-97.8752;-6.14;1;1
10.93;4.96;0.83;-17.11;-6;-22;54;-98.30290000000001;-6.14;1;1
10.955;5.09;0.83;-17.45;4;-5;27;-98.7392;-6.12;1;1
10.981;5.98;-0.53;-18.32;14;4;20;-99.21549999999999;-6.10;1;1
11.005;6.28;-1.01;-18.52;6;11;34;-99.66;-6.09;1;1
11.031;6.91;-1.04;-18.92;1;6;62;-100.15190000000001;-6.09;1;1
11.056;6.36;-0.86;-18.3;16;-14;78;-100.60940000000001;-6.06;1;1
11.081;5.83;-1.24;-17.48;22;-37;71;-101.04639999999999;-6.03;1;1
11.107;5.44;-1.72;-17.5;-5;-51;51;-101.50139999999999;-6.03;1;1
11.141;5.34;-2.08;-18.02;-34;-73;55;-102.1141;-6.03;1;1
11.165;5.53;-1.44;-19.42;-12;-78;67;-102.5801;-6.03;1;1
11.191;6.08;-0.79;-20.23;29;-76;62;-103.10610000000001;-6.02;1;1
11.216;5.35;-2.29;-19.6;55;-75;62;-103.5961;-6.02;1;1
11.242;3.97;-3.36;-18.6;54;-66;87;-104.07969999999999;-6.02;1;1
11.268;4.26;-3.35;-19.53;54;-42;104;-104.5875;-6.02;1;1
11.292;4.27;-3.62;-18.86;56;-21;100;-105.0401;-6.02;1;1
11.326;3.74;-4.25;-18.11;37;-11;115;-105.6559;-6.02;1;1
11.356;3.25;-3.91;-18.7;38;-3;115;-106.21690000000001;-5.99;1;1
11.399;3.38;-5.06;-18.49;47;-5;87;-107.012;-6.00;1;1
11.426;2.25;-5.47;-17.47;39;-18;96;-107.48360000000001;-6.00;1;1
11.452;1.19;-5.13;-17.38;15;-5;75;-107.93549999999999;-6.00;1;1
11.477;1.13;-4.81;-17.65;-4;19;39;-108.3768;-6.00;1;1
11.502;1.24;-5.16;-17.54;-9;32;12;-108.81530000000001;-6.00;1;1
11.528;2.39;-5.21;-17.75;0;31;5;-109.27680000000001;-6.00;1;1
11.553;2.23;-5.87;-17.6;12;20;23;-109.7168;-6.02;1;1
11.579;0.54;-4.72;-16.85;8;12;8;-110.1549;-6.03;1;1
11.604;-1.8;-3.15;-15.65;-25;16;-75;-110.53049999999999;-6.03;1;1
11.632;4.9;-5.06;-18.61;-44;26;-142;-111.0702;-6.05;1;1
11.666;3.33;-6.8;-18.12;-48;-28;-85;-111.68620000000001;-6.05;1;1
11.691;2.72;-4.56;-17.54;-32;-8;-70;-112.12469999999999;-6.06;1;1
11.717;4.61;-2.65;-19.85;-37;-22;-92;-112.6408;-6.06;1;1
11.743;4.61;-3.97;-19.94;-31;-23;-89;-113.1593;-6.08;1;1
11.768;3.72;-4.38;-19.61;-12;-19;-47;-113.6495;-6.08;1;1
11.794;3.17;-3.69;-19.35;-7;-25;-39;-114.1526;-6.08;1;1
11.819;3.08;-3.58;-18.77;-13;-23;-47;-114.62190000000001;-6.08;1;1
11.845;3.2;-3.76;-18.57;-21;-19;-47;-115.1047;-6.08;1;1
11.871;3.16;-3.61;-18.02;-21;-8;-35;-115.5732;-6.08;1;1
11.896;3.37;-3.28;-17.85;-2;14;-6;-116.01950000000001;-6.08;1;1
11.93;3.96;-3.05;-18.56;22;12;6;-116.6505;-6.08;1;0
11.956;3.82;-3.9;-18.81;36;23;15;-117.13959999999999;-6.08;1;1
11.981;3.84;-3.79;-18.32;27;45;24;-117.5976;-6.08;1;1
12.007;3.43;-3.38;-16.42;8;63;26;-118.0245;-6.08;1;1
12.032;4.41;-3.77;-18.37;2;84;25;-118.48370000000001;-6.08;1;1
12.058;4.31;-3.59;-18.49;11;77;23;-118.9645;-6.08;1;1
12.083;4.86;-4.43;-17.99;21;62;24;-119.4142;-6.08;1;1
12.108;5.51;-4.03;-17.42;7;45;27;-119.8497;-6.09;1;1
12.134;3.98;-2.99;-17.46;-5;56;21;-120.3037;-6.09;1;1
12.159;4.5;-3.39;-17.07;6;71;26;-120.7304;-6.09;1;1
12.209;4.81;-3.58;-16.52;52;73;35;-121.5564;-6.12;1;1
12.234;5.22;-5.48;-15.86;25;71;40;-121.95290000000001;-6.12;1;1
12.26;6.34;-4.18;-16.35;12;53;3;-122.37799999999999;-6.14;1;1
12.284;6.03;-4.3;-16.9;2;21;-15;-122.7836;-6.14;1;1
12.31;5.53;-4.53;-16.62;22;22;1;-123.2157;-6.14;1;1
12.336;5.24;-4.96;-15.44;27;42;9;-123.6172;-6.14;1;1
12.361;6.54;-4.31;-16.45;8;51;-5;-124.0284;-6.14;1;1
12.387;6.01;-4.68;-16.2;-3;28;-30;-124.44959999999999;-6.14;1;1
12.415;5.39;-4.42;-15.78;7;13;-31;-124.8915;-6.15;1;1
12.448;4.97;-3.16;-15.96;3;22;-31;-125.4181;-6.16;1;1
12.493;6.35;-4.17;-16.19;24;9;-35;-126.1467;-6.16;1;1
12.523;5.81;-4.85;-15.02;7;17;-41;-126.59729999999999;-6.15;1;1
12.551;6.86;-3.92;-15.9;-8;-11;-58;-127.0425;-6.15;1;1
12.576;6.91;-6.04;-13.7;-40;-26;-47;-127.385;-6.15;1;1
12.601;7.09;-3.84;-15.37;-51;-44;-61;-127.7692;-6.15;1;1
12.626;5.51;-5.29;-16.41;-35;-60;-41;-128.17950000000002;-6.15;1;1
12.652;6.77;-4.63;-17.06;-15;-47;8;-128.606;-6.14;1;1
12.677;6.14;-3.49;-17.04;11;-18;34;-129.049;-6.14;1;1
12.702;6.71;-2.96;-17.62;40;30;19;-129.48950000000002;-6.14;1;1
12.727;6.91;-3.97;-16.51;53;58;19;-129.9023;-6.12;1;1
12.761;6.06;-5.64;-13.91;32;40;20;-130.3613;-6.10;1;1
12.785;6.54;-4.73;-15.33;7;6;17;-130.7446;-6.10;1;1
12.811;7.2;-4.19;-15.68;-5;-1;-3;-131.1366;-6.10;1;1
12.835;8.33;-5.23;-16.76;-16;-1;-5;-131.5556;-6.10;1;1
12.861;7.93;-4.73;-14.82;-17;-2;-1;-131.9409;-6.08;1;1
12.885;6.91;-4.62;-15.8;-10;-7;1;-132.3201;-6.08;1;1
12.911;6.14;-2.88;-15.86;-2;-16;-9;-132.7325;-6.08;1;1
12.937;5.25;-2.47;-15.21;4;-12;-28;-133.1279;-6.08;1;1
12.961;6.1;-2.53;-14.34;23;23;-34;-133.47209999999998;-6.08;1;1
12.987;6.39;-4.18;-14.79;22;29;-15;-133.8566;-6.09;1;1
13.02;6.92;-3.15;-14.78;7;11;-17;-134.3444;-6.09;1;1
13.045;6.43;-3.44;-14.25;3;2;-28;-134.7006;-6.10;1;1
13.07;6.24;-3.76;-14.65;-10;1;-28;-135.0669;-6.10;1;1
13.095;7.34;-2.49;-15.35;-15;29;-25;-135.4506;-6.10;1;1
13.121;8.44;-3.53;-16.37;-1;34;-17;-135.8762;-6.10;1;1
13.146;8.7;-5.16;-14.63;12;-6;-12;-136.24200000000002;-6.10;1;1
13.171;7.0;-6.04;-14.22;6;-10;-12;-136.5975;-6.10;1;1
13.197;7.66;-1.35;-13.35;-3;0;1;-136.94459999999998;-6.09;1;1
13.221;7.82;-2.88;-14.92;-3;12;-3;-137.30270000000002;-6.08;1;1
13.253;7.67;-3.38;-15.22;-18;18;-1;-137.78969999999998;-6.08;1;1
13.287;6.65;-2.32;-14.75;-21;12;-7;-138.2912;-6.06;1;1
13.312;6.11;-1.12;-15.23;-17;26;-17;-138.672;-6.08;1;1
13.337;6.73;-2.84;-14.92;-9;40;-18;-139.045;-6.08;1;1
13.363;7.16;-2.93;-14.63;-7;43;-10;-139.4253;-6.08;1;1
13.388;7.5;-2.69;-14.59;-5;29;-6;-139.7901;-6.08;1;1
13.414;7.11;-2.7;-14.36;-7;8;-13;-140.1634;-6.06;1;1
13.438;7.2;-2.29;-14.38;-16;0;-18;-140.5086;-6.06;1;1
13.464;7.13;-2.44;-13.79;-6;17;-19;-140.8671;-6.06;1;1
13.49;7.96;-2.73;-14.52;-13;14;-8;-141.2446;-6.08;1;1
13.515;7.97;-1.99;-14.78;-5;7;-5;-141.6141;-6.08;1;1
13.556;7.81;-2.27;-14.47;-5;15;-7;-142.2074;-6.08;1;1
13.586;7.76;-2.16;-14.38;-10;12;-10;-142.6388;-6.06;1;1
13.617;7.82;-2.19;-14.77;2;-5;-2;-143.0966;-6.05;1;1
13.646;7.25;-2.18;-14.21;10;-11;9;-143.5087;-6.05;1;1
13.674;7.77;-1.89;-14.45;5;-22;7;-143.9133;-6.05;1;1
13.7;9.77;-1.24;-14.71;-33;-16;1;-144.29579999999999;-6.02;1;0
13.725;7.07;-1.53;-15.0;0;-34;-1;-144.67079999999999;-6.02;1;1
13.751;7.53;-2.84;-14.14;5;-20;10;-145.0384;-5.99;1;1
13.776;7.26;-2.37;-14.33;-5;-10;10;-145.3967;-5.99;1;1
13.802;7.23;-2.14;-14.65;-20;-11;-3;-145.7776;-5.99;1;1
13.836;7.09;-0.48;-15.77;-28;-8;-17;-146.3138;-5.96;1;1
13.861;6.53;-1.03;-15.37;8;3;0;-146.69799999999998;-5.95;1;1
13.886;7.45;-1.34;-15.79;0;2;5;-147.0928;-5.93;1;1
13.912;8.02;-2.14;-15.33;0;-5;-6;-147.4913;-5.93;1;1
13.937;7.13;-1.92;-14.35;3;11;-18;-147.8501;-5.93;1;1
13.963;7.42;-2.67;-14.38;-9;20;-16;-148.224;-5.93;1;1
13.988;8.85;-1.96;-14.58;-2;-2;-9;-148.5885;-5.92;1;1
14.016;7.65;-1.75;-14.07;-1;-1;0;-148.98239999999998;-5.89;1;1
14.042;7.54;-2.05;-14.73;-9;3;0;-149.36540000000002;-5.89;1;1
14.067;7.98;-1.6;-15.34;-19;6;-15;-149.7489;-5.89;1;1
14.101;7.44;-1.66;-14.47;-16;38;-17;-150.2409;-5.88;1;0
14.127;7.66;-1.64;-15.08;-11;24;-16;-150.63299999999998;-5.88;1;1
14.152;7.94;-0.94;-15.78;-1;2;-9;-151.0275;-5.86;1;1
14.178;7.78;-0.66;-15.45;9;-2;-2;-151.4292;-5.86;1;1
14.206;6.83;-1.33;-14.55;-1;-5;-9;-151.8366;-5.86;1;1
14.231;6.56;-1.39;-13.96;-17;-4;-28;-152.1856;-5.86;1;1
14.257;7.34;-1.72;-14.34;-28;-3;-28;-152.5584;-5.85;1;1
14.282;7.33;-1.43;-15.21;-19;-9;-20;-152.9387;-5.86;1;1
14.308;7.73;-0.64;-14.84;-2;-15;-13;-153.3245;-5.86;1;1
14.333;8.11;-0.82;-15.25;-6;-12;-20;-153.7058;-5.86;1;1
14.383;8.28;0.3;-15.72;-6;-7;-5;-154.4918;-5.85;1;1
14.408;7.95;-0.53;-14.97;-3;-8;-1;-154.866;-5.85;1;1
14.434;7.38;-0.52;-14.94;-8;-4;-12;-155.2545;-5.83;1;1
14.459;7.45;-0.75;-15.19;-20;-8;-24;-155.6342;-5.83;1;1
14.485;8.02;-1.05;-14.89;-15;-13;-38;-156.0213;-5.83;1;1
14.511;7.89;-0.77;-14.85;-9;-13;-37;-156.4074;-5.82;1;1
14.536;6.99;-0.11;-15.83;-12;-11;-23;-156.8032;-5.82;1;1
14.562;6.78;-1.31;-14.61;-3;-6;-15;-157.1831;-5.82;1;1
14.587;7.56;0.81;-15.67;2;-8;-26;-157.57479999999998;-5.83;1;1
14.613;8.03;-0.36;-15.1;0;-8;-31;-157.9523;-5.82;1;1
14.646;7.57;-0.3;-15.18;-12;-10;-24;-158.4684;-5.82;1;1
14.68;6.8;-0.38;-15.33;-15;-23;-15;-158.9896;-5.83;1;1
14.709;7.59;1.2;-15.43;-10;-13;-25;-159.4371;-5.83;1;1
14.739;7.53;0.31;-15.11;12;-20;-23;-159.8904;-5.83;1;1
14.769;7.56;-0.01;-16.14;3;-19;-6;-160.3746;-5.85;1;0
14.796;7.64;0.64;-15.02;1;-19;4;-160.7802;-5.85;1;1
14.822;7.48;0.8;-15.8;-13;-15;3;-161.191;-5.85;1;1
14.849;7.66;0.87;-16.2;-7;-18;0;-161.6284;-5.85;1;1
14.874;7.13;0.2;-15.44;-3;-10;13;-162.0144;-5.85;1;1
14.9;7.07;0.83;-15.7;-1;-8;27;-162.4226;-5.86;1;1
14.932;8.25;0.65;-17.2;28;-40;24;-162.97299999999998;-5.86;1;1
14.958;7.37;1.35;-16.06;8;-33;11;-163.3905;-5.88;1;1
14.983;6.82;0.08;-16.0;0;-18;10;-163.79049999999998;-5.88;1;1
15.007;7.44;0.48;-16.03;-14;-12;15;-164.17520000000002;-5.88;1;1
15.033;7.44;0.52;-16.99;-25;-4;4;-164.61700000000002;-5.88;1;1
15.058;7.01;0.23;-15.83;-30;4;-5;-164.99689999999998;-5.88;1;1
15.083;6.77;0.14;-15.84;-21;-4;11;-165.40869999999998;-5.88;1;1
15.109;6.92;0.11;-16.69;-2;-13;37;-165.826;-5.88;1;1
15.133;7.42;0.94;-17.05;9;-11;49;-166.25220000000002;-5.86;1;1
15.159;7.05;1.07;-17.36;20;-13;39;-166.68619999999999;-5.85;1;1
15.192;6.19;-0.09;-15.94;11;-15;27;-167.2282;-5.85;1;1
15.217;6.44;-0.16;-16.52;-5;3;28;-167.62470000000002;-5.83;1;1
15.242;7.02;0.65;-17.78;0;1;35;-168.08700000000002;-5.83;1;1
15.266;7.53;-0.57;-16.91;11;-7;34;-168.4928;-5.83;1;1
15.292;6.77;-0.51;-17.02;13;-20;27;-168.93529999999998;-5.86;1;1
15.317;6.54;-1.29;-16.54;15;-21;32;-169.3488;-5.86;1;1
15.342;6.15;-0.68;-16.94;12;-1;36;-169.7723;-5.86;1;1
15.368;6.73;-0.41;-17.36;17;29;20;-170.22369999999998;-5.88;1;1
15.392;7.41;-1.34;-16.93;21;33;16;-170.63;-5.88;1;1
15.418;6.73;-1.6;-16.26;14;11;24;-171.0528;-5.89;1;1
15.443;6.38;-0.92;-16.06;6;10;14;-171.4543;-5.89;1;1
15.466;6.28;-0.97;-16.36;5;17;5;-171.8306;-5.89;1;1
15.491;6.89;-1.78;-17.0;15;17;15;-172.25560000000002;-5.90;1;1
15.516;6.49;-0.92;-16.96;36;13;26;-172.6796;-5.92;1;1
15.542;6.56;-0.03;-16.32;51;4;21;-173.10389999999998;-5.92;1;1
15.566;6.77;-1.99;-16.74;53;8;15;-173.50560000000002;-5.93;1;1
15.592;6.77;-1.76;-17.07;48;7;26;-173.9495;-5.93;1;1
15.616;6.57;-1.84;-16.84;50;-1;18;-174.3536;-5.92;1;1
15.645;7.13;-4.69;-14.89;-53;1;-33;-174.7854;-5.92;1;1
15.67;7.43;-0.89;-16.39;-73;-26;-58;-175.1952;-5.93;1;0
15.696;-3.09;-10.32;-16.71;34;17;-23;-175.62959999999998;-5.95;1;0
15.73;14.99;-8.67;-17.02;31;-16;50;-176.2083;-5.95;1;1
15.755;8.73;-0.12;-14.86;20;0;17;-176.5798;-5.95;1;1
15.78;7.72;-0.5;-16.52;0;9;-9;-176.9928;-5.93;1;1
15.813;6.29;-2.13;-16.57;19;-5;-7;-177.53959999999998;-5.93;1;1
15.843;6.81;-2.63;-16.44;30;-24;13;-178.03279999999998;-5.93;1;1
15.872;7.46;-4.13;-15.11;17;-57;16;-178.47099999999998;-5.95;1;1
15.902;7.6;-3.41;-16.07;-8;-83;27;-178.9531;-5.93;1;1
15.933;6.77;-1.24;-17.65;-14;-88;16;-179.50029999999998;-5.93;1;1
15.958;6.89;-1.79;-18.29;7;-99;5;-179.9575;-5.92;1;1
15.984;5.14;-2.83;-18.44;26;-102;34;-180.437;-5.92;1;1
16.018;2.6;0.44;-18.74;55;-49;40;-181.0741;-5.92;1;1
16.043;10.95;-1.08;-16.08;13;-4;24;-181.46;-5.92;1;1
16.068;4.17;-1.06;-18.95;17;-29;28;-181.9527;-5.92;1;1
16.094;4.41;-2.77;-18.92;36;-43;29;-182.4447;-5.90;1;1
16.119;3.6;-3.32;-17.1;24;-9;32;-182.87220000000002;-5.89;1;1
16.145;3.63;-3.53;-17.42;26;-3;27;-183.3251;-5.89;1;1
16.17;4.47;-3.65;-17.55;21;-19;21;-183.7638;-5.88;1;1
16.196;4.42;-4.03;-17.84;6;-39;32;-184.2277;-5.88;1;1
16.222;3.44;-3.42;-17.53;-7;-44;28;-184.6659;-5.89;1;1
16.246;3.15;-3.32;-17.77;-10;-19;13;-185.1102;-5.89;1;1
16.28;3.4;-3.25;-18.15;-1;-20;11;-185.72729999999999;-5.89;1;1
16.306;2.94;-3.02;-18.02;-4;-18;-4;-186.19580000000002;-5.89;1;1
16.331;2.68;-3.36;-17.57;-18;-16;-22;-186.6351;-5.88;1;1
16.357;3.72;-3.79;-17.73;-30;-19;-29;-187.09599999999998;-5.86;1;1
16.491;3.9;-3.04;-18.74;-17;13;-22;-189.6072;-0.25;1;1
16.517;3.25;-2.51;-17.82;3;11;-26;-190.07049999999998;-0.25;1;1
16.542;3.98;-1.89;-17.42;-17;27;-70;-190.50599999999997;-0.25;1;1
16.575;5.76;-3.27;-18.98;-40;41;-52;-191.13240000000002;0.03;1;1
16.601;4.81;-2.78;-19.32;-18;31;-19;-191.6347;-6.43;1;1
16.649;5.31;-1.24;-19.34;-12;56;-59;-192.563;-6.43;1;1
16.674;5.74;-2.16;-18.82;-29;81;-50;-193.03349999999998;-6.43;1;1
16.7;6.27;-1.8;-19.55;-25;93;-25;-193.5223;-6.42;1;1
16.724;5.56;-0.17;-18.5;3;88;-3;-193.9848;-6.40;1;1
16.75;6.02;-1.15;-17.2;42;86;5;-194.43200000000002;-6.40;1;1
16.776;5.56;-1.17;-16.55;56;93;-3;-194.8623;-6.40;1;1
16.801;7.44;-1.6;-17.22;43;93;-4;-195.2928;-6.39;1;1
16.826;7.34;-2.44;-17.86;36;96;20;-195.73930000000001;-6.38;1;1
16.851;6.31;-2.23;-15.96;42;80;25;-196.13830000000002;-6.36;1;1
16.877;4.8;-1.1;-14.33;38;53;-5;-196.5109;-6.36;1;1
16.911;7.05;-0.16;-17.39;13;52;-63;-197.10209999999998;-6.34;1;1
16.935;0.62;2.36;-19.07;20;71;-54;-197.5598;-6.34;1;0
16.962;2.27;-1.23;-14.03;27;16;-19;-197.9386;-6.34;1;1
16.988;6.63;-2.82;-14.96;39;19;-15;-198.3276;-6.32;1;1
17.012;9.59;-3.74;-18.09;53;0;2;-198.7617;-6.30;1;1
17.046;7.06;-1.65;-15.15;35;-27;8;-199.2768;-6.26;1;1
17.076;6.98;-1.46;-13.74;-2;-6;-25;-199.6891;-6.26;1;1
17.105;4.76;-1.32;-15.35;16;-5;-10;-200.1342;-6.24;1;1
17.135;8.92;-2.71;-14.96;58;-7;44;-200.583;-6.20;1;1
17.163;8.31;-2.08;-15.34;55;-1;59;-201.0125;-6.19;1;1
17.196;7.48;-1.63;-16.42;13;-24;39;-201.5544;-6.18;1;1
17.221;6.06;-3.02;-16.12;55;-20;45;-201.9574;-6.15;1;1
17.355;6.07;-3.95;-13.49;44;-76;59;-203.765;0.06;1;1
17.381;4.3;-5.58;-16.29;39;-73;24;-204.1886;0.06;1;1
17.406;2.7;-5.46;-16.35;15;-55;-71;-204.5973;0.06;1;1
17.431;2.18;-4.17;-16.14;-6;-13;-249;-205.00080000000003;0.08;1;1
17.46;6.3;0.72;-14.6;-1;19;-250;-205.42419999999998;-6.34;1;1
17.484;9.82;4.44;-15.17;-9;-1;-137;-205.78830000000002;-6.32;1;1
17.618;7.05;1.81;-16.41;-4;-11;-2;-207.9873;-0.07;1;1
17.644;6.38;0.98;-16.95;-7;-20;43;-208.428;-0.07;1;1
17.678;5.32;-0.48;-14.91;-12;-20;41;-208.93490000000003;-0.25;1;1
17.702;4.79;-0.92;-15.53;-19;-16;11;-209.30759999999998;-0.25;1;1
17.728;5.07;0.07;-16.66;-25;-31;32;-209.7408;-6.91;1;1
17.754;3.84;-0.57;-16.19;-26;-48;60;-210.1617;-6.91;1;1
17.778;-0.68;-23.31;-24.21;35;3;7;-210.7427;-6.89;1;1
17.804;11.76;-17.96;-17.38;86;40;-97;-211.19459999999998;-6.89;1;1
17.829;14.23;1.04;-19.08;64;85;-59;-211.6716;-6.85;1;0
17.855;10.0;-0.84;-20.03;70;61;76;-212.19240000000002;-6.81;1;1
17.881;5.67;-3.05;-20.53;87;62;54;-212.72619999999998;-6.78;1;1
17.906;0.51;-5.0;-17.84;74;182;-49;-213.1543;-6.72;1;1
17.939;9.45;0.05;-14.2;53;150;-51;-213.6371;-6.67;1;1
17.964;8.13;-6.82;-14.02;53;115;-6;-213.9876;-6.67;1;1
17.992;7.92;-2.09;-15.55;41;68;13;-214.423;-6.63;1;1
18.018;5.91;-3.64;-14.33;38;45;-4;-214.7956;-6.59;1;1
18.043;7.52;-1.05;-11.45;22;46;-18;-215.0819;-6.56;1;1
18.068;7.47;-2.27;-11.92;2;52;6;-215.37990000000002;-6.56;1;1
18.094;6.97;-2.6;-12.82;-10;41;7;-215.7132;-6.53;1;1
18.119;7.21;-0.29;-11.09;-30;22;12;-215.9793;-6.49;1;1
18.144;8.25;-2.89;-12.49;-32;21;5;-216.3041;-6.47;1;1
18.169;6.35;-2.43;-13.91;-31;55;-9;-216.6518;-6.47;1;1
18.202;14.15;-1.95;-3.0;-27;45;-14;-216.75080000000003;-6.45;1;1
18.228;8.13;0.22;-13.37;-53;14;57;-217.09849999999997;-6.40;1;1
18.253;4.76;-3.81;-14.84;-64;23;40;-217.4695;-6.38;1;1
18.278;5.71;-3.14;-15.3;-64;51;5;-217.852;-6.35;1;1
18.303;6.54;-4.21;-15.07;-46;74;8;-218.2287;-6.35;1;1
18.329;4.06;-4.29;-13.99;-27;108;-32;-218.5925;-6.34;1;1
18.357;6.1;-1.95;-11.72;12;117;-63;-218.9206;-6.30;1;1
18.389;6.66;7.06;-3.45;-5;-52;23;-219.03099999999998;-6.28;1;1
18.42;8.82;-4.62;-10.01;-46;-94;35;-219.34130000000002;-6.26;1;1
18.45;9.64;-3.75;-13.66;-56;-71;34;-219.7511;-6.24;1;1
18.49;8.71;-8.4;-15.26;-9;6;-38;-220.3615;-6.22;1;1
18.515;7.75;-2.31;-11.76;2;-1;-22;-220.6555;-6.20;1;1
18.65;8.44;-2.37;-12.81;4;-14;-19;-222.38490000000002;-0.50;1;1
18.675;8.64;-0.74;-11.99;-14;-10;-28;-222.6846;-0.50;1;1
18.701;8.82;-2.36;-12.49;-20;7;-15;-223.0094;-0.50;1;1
18.726;7.41;-3.59;-11.88;-24;32;-18;-223.3064;-0.13;1;1
18.752;8.35;-1.77;-10.57;-27;20;-33;-223.5812;-6.62;1;1
18.778;7.85;-1.89;-12.52;-23;-10;-36;-223.90669999999997;-6.62;1;1
18.803;8.8;-1.86;-13.53;-12;-13;-36;-224.245;-6.61;1;1
18.829;8.41;-1.18;-12.36;-6;-27;-23;-224.5663;-6.61;1;1
18.863;8.83;-0.42;-13.79;-14;-50;-46;-225.0352;-6.61;1;1
18.888;9.88;-1.07;-13.7;-6;-48;-31;-225.3777;-6.59;1;1
18.914;9.35;-1.12;-11.82;-1;-39;-22;-225.685;-6.57;1;1
18.939;8.08;-0.45;-11.46;5;-51;-29;-225.97150000000002;-6.57;1;1
18.965;8.92;-0.94;-13.06;8;-63;-24;-226.3111;-6.57;1;1
18.991;10.32;-0.03;-14.28;6;-61;6;-226.68240000000003;-6.55;1;1
19.015;7.89;0.08;-15.28;2;-59;8;-227.0491;-6.53;1;1
19.041;8.65;0.98;-15.1;-10;-59;-4;-227.44169999999997;-6.52;1;1
19.066;8.65;0.0;-15.77;-18;-42;-17;-227.8359;-6.52;1;1
19.092;9.76;0.05;-16.9;-5;-12;-5;-228.2753;-6.49;1;1
19.141;7.24;0.06;-13.35;2;22;-8;-228.9161;-6.45;1;1
19.166;7.66;-1.03;-14.9;-5;35;-24;-229.30349999999999;-6.45;1;1
19.191;8.33;0.11;-15.12;-15;42;-4;-229.68150000000003;-6.40;1;1
19.217;7.4;-0.67;-14.87;-24;44;4;-230.0682;-6.38;1;1
19.242;6.17;-1.38;-14.19;-35;43;-21;-230.4229;-6.35;1;1
19.268;7.8;0.69;-14.4;-39;40;-55;-230.7973;-6.35;1;1
19.297;7.86;1.08;-13.66;-36;36;-24;-231.1934;-6.34;1;1
19.322;6.94;0.07;-13.16;-39;44;-28;-231.5224;-6.34;1;1
19.347;5.74;1.69;-14.17;-39;59;-63;-231.87669999999997;-6.32;1;1
19.372;3.46;-0.32;-12.16;-21;35;-86;-232.1807;-6.32;1;1
19.406;8.29;4.75;-12.59;-13;0;-103;-232.6088;-6.29;1;1
19.432;10.73;1.55;-13.45;-7;-21;-49;-232.9585;-6.29;1;1
19.457;11.97;0.86;-13.86;1;-44;-22;-233.305;-6.28;1;1
19.483;9.11;4.72;-13.69;-12;-37;-22;-233.6609;-6.28;1;1
19.509;10.15;3.14;-13.86;-17;-7;-22;-234.0213;-6.28;1;1
19.534;8.81;1.41;-14.47;-9;20;-2;-234.38299999999998;-6.28;1;1
19.56;8.79;1.14;-14.99;3;24;26;-234.7728;-6.25;1;1
19.585;8.4;3.64;-13.15;15;16;27;-235.10150000000002;-6.25;1;1
19.619;9.75;4.83;-13.05;-6;-5;-5;-235.53220000000002;-6.22;1;1
19.648;11.31;2.25;-15.01;-24;-14;25;-235.9825;-6.20;1;1
19.691;10.04;1.88;-14.27;3;-19;64;-236.5961;-6.19;1;1
19.719;8.51;1.1;-13.52;34;-16;68;-236.97459999999998;-6.18;1;1
19.744;7.53;0.69;-13.56;40;-10;76;-237.3136;-6.15;1;1
19.769;7.49;1.25;-13.75;52;-25;82;-237.65740000000002;-6.15;1;1
19.794;6.06;1.22;-12.45;52;-44;80;-237.9686;-6.12;1;1
19.82;4.87;0.78;-12.81;36;-58;45;-238.28889999999998;-6.10;1;1
19.848;8.13;0.06;-15.07;16;-56;37;-238.7259;-6.09;1;1
19.982;5.96;-2.25;-16.29;57;-60;68;-240.9088;-0.25;1;1
20.007;6.04;-3.17;-16.74;53;-45;51;-241.3105;-0.25;1;1
20.032;7.41;-2.93;-17.08;51;-20;45;-241.75459999999998;-0.25;1;1
20.066;7.18;-2.37;-16.13;42;-25;66;-242.303;-0.04;1;1
20.091;4.7;-3.56;-16.17;29;-22;55;-242.7073;-6.56;1;1
20.116;5.5;-3.74;-15.68;22;5;3;-243.0993;-6.55;1;1
20.142;7.6;-2.15;-15.86;29;13;23;-243.5116;-6.52;1;1
20.167;6.75;-3.7;-15.62;33;1;57;-243.9021;-6.52;1;1
20.192;5.24;-4.34;-15.92;32;-13;64;-244.3001;-6.51;1;0
20.224;4.63;-4.38;-14.99;17;-10;28;-244.7798;-6.49;1;1
20.25;5.42;-4.6;-15.15;5;-2;24;-245.1737;-6.46;1;1
20.275;4.71;-4.94;-15.05;4;10;20;-245.55;-6.43;1;1
20.3;5.34;-4.39;-14.67;9;11;8;-245.9167;-6.43;1;1
20.333;5.28;-4.85;-14.86;5;-14;-20;-246.40709999999999;-6.40;1;1
20.359;5.78;-3.33;-15.44;-4;-12;-18;-246.8086;-6.39;1;1
20.384;5.25;-3.88;-14.64;-18;-8;-5;-247.1746;-6.36;1;1
20.41;3.24;-4.19;-14.17;-40;4;-42;-247.543;-6.35;1;1
20.434;3.41;-3.61;-13.62;-73;7;-107;-247.86990000000003;-6.34;1;1
20.46;5.95;-1.24;-15.74;-100;-19;-155;-248.2791;-6.34;1;1
20.486;8.34;-1.33;-17.39;-112;-26;-86;-248.7312;-6.32;1;1
20.511;4.75;-3.96;-17.68;-107;8;-104;-249.1732;-6.30;1;1
20.536;5.1;-2.5;-16.25;-95;40;-170;-249.5795;-6.28;1;1
20.561;9.01;0.67;-15.79;-85;36;-171;-249.9742;-6.28;1;1
20.595;8.85;0.35;-17.1;-53;14;-46;-250.55560000000003;-6.26;1;1
20.62;6.81;-0.29;-16.77;-50;29;-60;-250.97490000000002;-6.25;1;1
20.645;6.82;0.37;-16.69;-54;31;-88;-251.3921;-6.22;1;1
20.779;6.7;2.93;-16.8;-43;-1;-44;-253.6433;-0.26;1;1
20.805;7.48;2.41;-17.12;-40;-6;-33;-254.0713;-0.26;1;1
20.83;7.16;1.85;-16.88;-31;-7;-24;-254.5102;-0.26;1;1
20.855;6.53;2.23;-16.41;-29;15;-32;-254.9205;-0.21;1;1
20.881;6.17;2.89;-15.78;-49;40;-38;-255.3308;-6.73;1;1
20.905;7.49;3.12;-15.71;-41;45;-40;-255.7078;-6.72;1;1
20.931;7.67;4.06;-15.67;-20;28;-22;-256.1152;-6.72;1;1
20.962;6.71;3.51;-15.44;-17;10;-9;-256.5938;-6.71;1;1
20.991;6.61;3.27;-15.63;-31;17;-18;-257.0471;-6.71;1;1
21.022;7.66;3.52;-15.94;-18;16;-12;-257.5253;-6.67;1;1
21.052;7.02;3.85;-15.58;16;17;-12;-258.0083;-6.65;1;1
21.08;7.54;4.53;-19.11;30;24;-5;-258.5434;-6.62;1;1
21.107;7.61;3.62;-16.68;54;18;29;-258.9937;-6.57;1;1
21.133;6.32;3.82;-15.54;29;20;36;-259.39779999999996;-6.56;1;1
21.158;5.76;4.31;-15.31;24;25;13;-259.7805;-6.56;1;1
21.184;6.97;4.24;-14.48;14;21;5;-260.157;-6.53;1;1
21.21;7.35;3.36;-14.12;-7;21;11;-260.51;-6.49;1;1
21.242;6.57;2.69;-14.71;-29;39;9;-260.9954;-6.47;1;1
21.268;6.9;3.06;-14.24;-25;45;-8;-261.3657;-6.46;1;1
21.294;8.02;3.32;-13.52;-17;30;2;-261.7172;-6.46;1;1
21.319;6.87;3.72;-13.99;-20;11;7;-262.0669;-6.43;1;1
21.345;6.93;3.39;-14.19;-33;-2;-3;-262.4359;-6.42;1;1
21.369;7.27;2.87;-14.32;-39;-7;-4;-262.7796;-6.40;1;1
21.395;7.01;2.88;-13.74;-30;1;-16;-263.1368;-6.40;1;1
21.42;7.02;2.09;-12.72;-23;8;-35;-263.4548;-6.38;1;1
21.446;7.78;3.62;-13.26;-19;9;-30;-263.7996;-6.36;1;1
21.472;8.01;4.41;-13.45;-27;9;-21;-264.1493;-6.34;1;1
21.52;7.22;-5.01;-10.43;-45;5;-72;-264.6499;-6.30;1;1
21.545;8.09;7.9;-14.24;-49;-32;-111;-265.0059;-6.28;1;1
21.571;6.85;7.09;-14.93;-26;-44;31;-265.3941;-6.25;1;1
21.597;6.86;4.54;-15.44;-13;-41;14;-265.79560000000004;-6.25;1;1
21.622;6.47;3.54;-14.76;3;-15;9;-266.1646;-6.24;1;1
21.648;6.28;4.28;-14.36;-9;13;0;-266.53790000000004;-6.22;1;1
21.673;5.9;4.57;-13.84;-21;41;-10;-266.8839;-6.22;1;1
21.699;6.93;5.51;-13.61;-25;43;-18;-267.2378;-6.22;1;1
21.725;7.86;8.4;-16.44;-19;20;-8;-267.6652;-6.20;1;0
21.75;6.71;4.52;-14.62;18;5;24;-268.0307;-6.18;1;1
21.787;6.65;5.05;-14.19;27;0;2;-268.55580000000003;-6.16;1;1
21.813;6.88;5.25;-13.89;32;-8;0;-268.9169;-6.16;1;1
21.838;7.79;4.14;-13.65;8;6;6;-269.2582;-6.15;1;1
21.863;9.3;7.52;-13.02;9;-10;24;-269.58369999999996;-6.15;1;1
21.888;6.83;5.83;-13.17;9;-5;29;-269.91290000000004;-6.14;1;1
21.917;6.97;5.67;-13.59;-2;-3;25;-270.307;-6.12;1;1
21.943;6.97;4.83;-13.79;-9;9;18;-270.66560000000004;-6.12;1;1
21.968;7.05;4.86;-13.3;-16;18;14;-270.9848;-6.12;1;1
21.993;7.35;4.99;-13.3;-22;16;21;-271.3306;-6.12;1;1
22.019;6.92;4.53;-13.71;-23;16;18;-271.687;-6.12;1;1
22.052;7.3;4.21;-13.34;-25;16;10;-272.1272;-6.12;1;1
22.086;6.91;4.26;-13.05;-18;-3;15;-272.5709;-6.09;1;1
22.116;7.56;3.65;-13.26;-13;-18;18;-272.9687;-6.10;1;1
22.145;8.47;2.08;-13.05;-58;4;10;-273.3472;-6.09;1;1
22.175;8.45;2.86;-14.52;-31;0;16;-273.7828;-6.09;1;1
22.203;8.07;2.56;-13.23;-27;18;23;-274.14;-6.08;1;1
22.227;8.0;5.04;-12.5;-25;13;9;-274.4525;-6.08;1;1
22.253;7.56;2.34;-12.8;-19;0;25;-274.7725;-6.08;1;1
22.278;8.12;3.33;-13.39;-8;-4;28;-275.1206;-6.08;1;1
22.412;8.54;3.91;-14.68;26;-57;7;-277.0878;-0.32;1;1
22.444;7.85;3.37;-14.35;35;-31;1;-277.547;-0.32;1;1
22.47;7.12;3.63;-13.96;29;0;-6;-277.9099;-0.44;1;1
22.495;8.44;4.44;-12.54;0;0;-15;-278.2234;-0.44;1;1
22.52;7.18;3.04;-14.43;-13;-3;3;-278.5842;-6.92;1;1
22.545;9.59;3.3;-12.49;9;29;-3;-278.89639999999997;-6.89;1;1
22.57;8.44;5.57;-10.82;7;16;-1;-279.1669;-6.86;1;1
22.595;7.38;6.12;-12.84;-18;6;6;-279.4879;-6.86;1;1
22.621;7.64;4.13;-14.28;-29;-8;17;-279.8592;-6.85;1;1
22.645;7.48;3.82;-14.6;-26;0;8;-280.20959999999997;-6.82;1;1
22.671;8.7;3.54;-14.07;-21;-2;11;-280.5754;-6.79;1;1
22.695;7.99;2.77;-13.03;-30;8;18;-280.8881;-6.79;1;1
22.718;7.85;3.96;-13.02;-27;11;35;-281.1876;-6.76;1;1
22.744;6.02;4.16;-15.79;5;25;23;-281.5981;-6.73;1;1
22.769;7.03;4.13;-13.86;19;16;5;-281.9446;-6.72;1;1
22.794;7.9;3.61;-12.78;9;11;8;-282.2641;-6.72;1;1
22.819;8.46;3.28;-12.37;-3;15;24;-282.5734;-6.69;1;1
22.847;8.02;3.85;-11.93;-9;6;37;-282.9074;-6.65;1;1
22.872;7.78;3.92;-12.65;-12;6;26;-283.2237;-6.62;1;1
22.897;7.76;3.59;-12.35;-24;3;18;-283.5324;-6.62;1;1
22.922;7.26;2.46;-12.2;-19;9;2;-283.8374;-6.57;1;1
22.947;7.55;2.8;-13.31;-10;5;12;-284.1702;-6.55;1;1
22.981;7.98;2.68;-13.93;-5;3;20;-284.6438;-6.51;1;1
23.007;7.41;1.96;-12.57;-5;16;-2;-284.9706;-6.46;1;1
23.031;8.08;3.45;-11.41;-21;19;-16;-285.2445;-6.43;1;1
23.057;9.14;3.98;-13.06;-40;25;-15;-285.584;-6.43;1;1
23.082;8.75;2.43;-13.24;-29;31;-9;-285.915;-6.40;1;1
23.107;8.05;3.06;-12.49;-17;33;-22;-286.2273;-6.38;1;1
23.133;8.72;3.14;-13.02;-3;22;-20;-286.5658;-6.36;1;1
23.158;9.21;3.2;-13.03;0;23;-9;-286.8915;-6.36;1;1
23.183;7.75;4.31;-10.8;6;23;-7;-287.1615;-6.35;1;1
23.208;7.67;4.43;-11.04;6;13;2;-287.4375;-6.34;1;1
23.241;9.63;1.71;-11.98;-17;30;-8;-287.83279999999996;-6.34;1;1
23.267;6.13;3.62;-12.35;-14;26;-4;-288.1539;-6.34;1;1
23.291;5.7;2.86;-11.13;13;17;-16;-288.4211;-6.34;1;1
23.325;8.38;2.65;-12.46;22;-1;-23;-288.8447;-6.30;1;1
23.355;7.39;3.93;-11.26;3;11;-32;-289.1825;-6.29;1;1
23.385;6.71;4.71;-10.25;3;-8;-15;-289.49;-6.28;1;1
23.414;7.74;3.59;-11.39;11;-38;-8;-289.8203;-6.26;1;1
23.442;9.9;4.05;-12.5;32;-38;0;-290.1703;-6.25;1;1
23.467;9.44;5.34;-12.51;48;-16;2;-290.48310000000004;-6.25;1;1
23.492;10.09;4.84;-14.62;63;-18;19;-290.84860000000003;-6.25;1;1
23.526;9.08;4.72;-14.2;54;-5;9;-291.3314;-6.24;1;1
23.551;7.6;3.06;-13.39;29;12;-1;-291.6527;-6.22;1;1
23.576;6.92;2.0;-12.86;25;28;-22;-291.9871;-6.20;1;1
23.605;6.57;3.36;-11.13;59;30;-27;-292.3099;-6.18;1;1
23.629;4.42;4.8;-10.06;36;23;-53;-292.5513;-6.18;1;1
23.662;7.09;4.29;-11.5;7;-16;-30;-292.9193;-6.18;1;1
23.687;6.05;4.59;-13.01;11;-18;-28;-293.25759999999997;-6.18;1;1
23.712;5.23;4.18;-14.29;26;-38;-33;-293.6148;-6.16;1;1
23.738;8.28;5.19;-14.48;38;-22;-36;-293.9913;-6.15;1;1
23.763;8.6;4.79;-12.85;33;9;-18;-294.3125;-6.15;1;1
23.813;6.33;6.21;-11.19;-36;-3;-6;-294.872;-6.15;1;1
23.837;9.85;6.26;-12.38;-44;-2;-17;-295.1692;-6.15;1;1
23.863;8.14;3.05;-15.96;-20;13;-15;-295.5841;-6.15;1;1
23.888;6.81;3.92;-15.41;16;17;-9;-295.9694;-6.14;1;1
23.914;5.65;4.39;-12.96;30;24;-79;-296.3063;-6.14;1;1
23.94;7.47;8.44;-11.97;23;27;-41;-296.6175;-6.12;1;1
23.965;9.45;6.52;-11.67;8;14;26;-296.90930000000003;-6.12;1;1
23.991;6.43;4.99;-12.52;-7;16;29;-297.2348;-6.12;1;1
24.016;5.74;4.66;-12.06;-21;11;-4;-297.5243;-6.12;1;1
24.041;9.1;7.41;-10.57;-7;11;-43;-297.7991;-6.12;1;1
24.075;8.71;5.28;-13.78;39;32;-12;-298.26759999999996;-6.12;1;1
24.1;6.68;6.36;-12.9;56;53;-99;-298.5901;-6.14;1;1
24.126;4.42;7.43;-13.13;39;66;-153;-298.9315;-6.14;1;1
24.152;6.6;6.14;-10.97;20;71;-173;-299.2167;-6.12;1;1
24.177;5.94;7.67;-10.18;-6;54;-88;-299.4712;-6.10;1;1
24.311;3.06;7.1;-11.06;-36;-55;-49;-300.9532;-0.30;1;1
24.337;7.37;7.0;-11.65;-31;-35;-63;-301.2561;-0.30;1;1
24.362;7.84;6.87;-12.14;11;-25;-36;-301.5596;-0.30;1;1
24.388;4.94;7.6;-12.62;18;-6;12;-301.8877;-0.32;1;0
24.415;2.14;7.06;-11.59;6;4;-6;-302.1891;-6.73;1;1
24.447;3.94;8.5;-11.6;-6;-19;-17;-302.57189999999997;-6.69;1;1
24.473;5.98;9.34;-12.6;-4;-29;30;-302.8995;-6.66;1;1
24.607;6.1;6.16;-12.25;13;1;30;-304.541;-0.24;1;1
24.636;3.25;6.94;-10.51;2;-8;3;-304.8458;-0.24;1;1
24.67;5.17;6.9;-11.09;-9;-23;-25;-305.2228;-0.04;1;1
24.699;5.73;6.58;-11.71;-21;-15;-24;-305.5507;-6.65;1;1
24.838;4.7;6.47;-12.48;-3;-17;-16;-307.2979;-0.22;1;1
24.867;4.83;5.97;-12.24;4;-27;-14;-307.6529;-0.22;1;1
24.895;5.34;7.92;-11.56;-5;-27;-21;-307.9765;-0.31;1;1
24.921;5.1;7.45;-12.23;-2;-17;-6;-308.2945;-0.31;1;1
24.953;4.49;7.78;-12.37;3;-10;-11;-308.6904;-7.18;1;1
24.979;5.13;8.09;-11.91;-9;-23;-22;-309.0;-7.16;1;1
25.004;6.75;8.59;-12.98;-16;-21;-1;-309.3116;-7.12;1;1
25.029;6.25;7.29;-13.91;-17;1;10;-309.6732;-7.08;1;1
25.055;4.07;7.48;-11.48;-15;-20;11;-309.9717;-7.08;1;1
25.08;3.8;7.4;-10.64;-27;-38;-11;-310.2377;-7.03;1;1
25.105;6.56;7.97;-12.97;-13;-22;5;-310.5619;-6.99;1;1
25.13;6.57;6.83;-15.55;-11;30;8;-310.9507;-6.93;1;1
25.156;5.2;7.0;-12.95;20;42;11;-311.2874;-6.93;1;1
25.181;3.07;7.57;-9.58;5;16;-11;-311.5269;-6.89;1;1
25.214;5.27;7.8;-12.28;-28;-25;-12;-311.9321;-6.85;1;1
25.24;6.4;7.15;-13.9;-25;-9;11;-312.2796;-6.82;1;1
25.265;3.71;6.82;-11.67;-22;-4;11;-312.58299999999997;-6.78;1;1
25.29;3.33;6.44;-11.51;-16;-9;-23;-312.87080000000003;-6.78;1;1
25.316;6.42;8.84;-14.01;-2;-25;-3;-313.235;-6.75;1;0
25.341;5.66;9.58;-12.28;-11;-15;30;-313.54200000000003;-6.71;1;1
25.367;4.27;8.59;-11.18;-26;-9;22;-313.8327;-6.66;1;1
25.392;3.89;7.38;-12.23;-35;-15;4;-314.13849999999996;-6.62;1;1
25.417;5.98;7.22;-12.72;-34;-14;1;-314.4565;-6.62;1;1
25.443;6.35;6.32;-12.3;-24;7;2;-314.7763;-6.59;1;1
25.476;4.9;5.85;-11.87;-12;17;-12;-315.168;-6.56;1;1
25.501;4.1;6.68;-12.68;0;13;-23;-315.485;-6.53;1;1
25.635;4.57;8.61;-11.33;18;14;16;-317.0032;-0.44;1;1
25.663;5.18;7.71;-11.39;22;13;7;-317.3221;-0.44;1;1
25.689;4.9;7.81;-11.75;12;6;2;-317.6276;-0.27;1;1
25.714;4.4;6.9;-10.31;10;5;-2;-317.8854;-0.27;1;1
25.739;5.43;7.69;-10.99;32;13;10;-318.1601;-6.75;1;1
25.767;5.7;7.81;-12.23;44;23;17;-318.5026;-6.73;1;1
25.793;4.7;8.51;-11.99;32;21;17;-318.8143;-6.72;1;1
25.818;4.02;6.16;-11.26;16;0;3;-319.0958;-6.72;1;1
25.843;4.54;6.39;-12.0;14;-11;-22;-319.3958;-6.71;1;1
25.877;4.32;7.54;-12.14;13;-3;-48;-319.8086;-6.71;1;1
25.902;4.47;8.23;-13.04;7;6;-47;-320.1346;-6.69;1;1
25.927;3.89;8.65;-13.32;1;5;-55;-320.4676;-6.67;1;1
25.953;4.64;8.74;-13.63;18;13;-47;-320.822;-6.67;1;1
25.978;5.94;11.66;-14.71;33;-18;1;-321.1897;-6.65;1;1
26.011;5.34;9.53;-13.92;31;5;27;-321.6491;-6.61;1;1
26.041;6.32;8.65;-12.68;25;4;76;-322.0295;-6.57;1;1
26.07;7.87;6.51;-13.19;55;32;117;-322.41200000000003;-6.55;1;1
26.1;5.04;7.97;-15.57;70;92;104;-322.8791;-6.51;1;1
26.129;4.9;7.85;-13.07;40;125;91;-323.2581;-6.47;1;1
26.162;5.37;7.01;-12.52;-23;100;68;-323.67130000000003;-6.43;1;1
26.187;6.29;8.35;-7.01;-34;44;75;-323.8465;-6.43;1;1
26.213;6.52;4.59;-9.53;-24;-18;64;-324.0943;-6.40;1;0
26.238;6.36;4.94;-10.95;-21;10;36;-324.3681;-6.38;1;1
26.264;10.62;4.6;-10.97;-1;36;57;-324.6533;-6.36;1;1
26.29;8.24;5.24;-12.05;31;52;76;-324.96659999999997;-6.35;1;1
26.315;6.69;5.37;-11.08;34;51;55;-325.2436;-6.35;1;1
26.341;7.9;5.6;-12.32;0;42;33;-325.5639;-6.34;1;1
26.365;9.03;5.42;-12.7;-15;33;42;-325.8687;-6.34;1;1
26.391;7.2;6.05;-10.84;-5;36;48;-326.15049999999997;-6.32;1;1
26.44;8.05;5.2;-10.18;11;56;59;-326.6493;-6.30;1;1
26.466;5.94;4.69;-8.9;17;73;45;-326.8808;-6.28;1;1
26.493;7.27;2.33;-11.0;16;29;40;-327.1777;-6.26;1;1
26.519;7.64;2.69;-11.98;0;16;24;-327.4892;-6.26;1;1
26.545;8.32;-1.27;-10.4;-1;18;-2;-327.7596;-6.25;1;1
26.569;7.37;3.4;-8.89;-4;39;0;-327.973;-6.24;1;1
26.595;7.76;2.66;-8.23;10;45;4;-328.18690000000004;-6.22;1;1
26.62;6.67;2.91;-7.82;13;44;5;-328.3825;-6.22;1;1
26.646;4.2;2.82;-6.3;5;39;-22;-328.5462;-6.22;1;1
26.672;5.35;3.9;-8.52;5;30;-42;-328.76779999999997;-6.22;1;1
26.704;7.47;3.79;-10.75;49;33;-7;-329.1117;-6.20;1;1
26.73;5.71;5.78;-8.49;49;25;-11;-329.3325;-6.18;1;1
26.756;4.94;5.05;-5.87;-5;69;-66;-329.48510000000005;-6.18;1;1
26.781;8.99;3.03;-8.94;-58;95;-118;-329.7086;-6.16;1;0
26.807;7.14;6.13;-9.01;-86;142;-131;-329.9429;-6.16;1;1
26.832;7.14;7.36;-9.11;-89;168;-104;-330.1706;-6.15;1;1
26.968;6.98;7.35;-5.11;-7;-5;0;-330.8656;-0.09;1;1
26.992;5.15;6.02;-5.49;39;0;1;-330.99730000000005;-0.09;1;1
27.018;3.94;6.67;-4.75;49;17;-54;-331.12080000000003;-0.09;1;1
27.043;5.39;8.1;-4.56;20;8;-24;-331.2348;-0.40;1;1
27.069;5.28;7.79;-5.17;-4;-21;22;-331.3692;-6.78;1;0
27.104;4.14;6.35;-6.35;-9;0;25;-331.5915;-6.75;1;1
27.129;3.58;6.54;-5.46;-12;43;5;-331.728;-6.73;1;1
27.155;3.52;5.71;-4.37;-22;58;-4;-331.8373;-6.71;1;1
27.179;3.65;5.93;-4.25;-31;45;-12;-331.9435;-6.71;1;1
27.205;4.13;6.77;-4.77;-34;41;-2;-332.0675;-6.66;1;1
27.239;2.9;7.48;-4.31;-4;49;34;-332.21410000000003;-6.63;1;1
27.269;2.1;6.21;-3.51;19;27;41;-332.31940000000003;-6.61;1;1
27.298;3.08;5.08;-4.09;14;-9;19;-332.43800000000005;-6.57;1;1
27.328;3.98;6.03;-4.85;26;2;29;-332.58349999999996;-6.55;1;1
27.464;4.74;5.87;-4.63;-4;22;86;-333.2132;-0.57;1;1
27.497;4.41;4.33;-4.65;0;31;38;-333.36660000000006;-0.57;1;1
27.529;5.23;5.93;-5.48;-12;54;64;-333.5419;-0.42;1;1
27.553;4.08;5.08;-5.06;0;55;84;-333.66339999999997;-6.85;1;1
27.579;3.1;5.03;-3.74;13;53;67;-333.76059999999995;-6.85;1;1
27.604;4.08;3.97;-2.92;2;44;53;-333.8336;-6.82;1;1
27.629;5.67;6.26;-2.66;-2;29;49;-333.9001;-6.81;1;1
27.655;4.79;1.4;-0.55;-7;-1;61;-333.9144;-6.78;1;1
27.679;4.39;4.14;-5.64;21;10;62;-334.0498;-6.78;1;1
27.705;4.83;2.82;-5.75;33;26;57;-334.19919999999996;-6.75;1;1
27.732;4.89;3.5;-5.72;18;35;49;-334.3537;-6.71;1;1
27.766;5.9;2.27;-1.14;1;68;52;-334.3925;-6.69;1;1
27.791;0.59;2.19;1.88;49;-21;33;-334.3455;-6.65;1;1
27.816;4.25;4.59;-2.54;61;-107;53;-334.409;-6.65;1;1
27.842;6.31;4.19;-5.4;36;-71;42;-334.54940000000005;-6.61;1;0
27.868;5.05;7.9;-6.18;-3;0;81;-334.71;-6.57;1;1
27.892;6.95;3.37;-3.94;-13;27;67;-334.8046;-6.56;1;1
27.918;5.56;3.7;-3.17;-4;21;58;-334.88699999999994;-6.52;1;1
27.943;5.32;3.52;-3.43;-3;-2;54;-334.9728;-6.52;1;1
27.968;5.64;4.25;-4.71;4;-21;78;-335.0905;-6.47;1;1
27.994;5.37;2.76;-5.68;33;-23;121;-335.2382;-6.43;1;1
28.019;4.86;1.03;-4.67;63;-19;93;-335.355;-6.39;1;1
28.161;5.25;-1.77;-4.53;39;13;-11;-335.9982;-0.29;1;1
28.186;5.46;2.14;-4.25;19;34;-65;-336.1044;-0.29;1;1
28.212;7.41;4.1;-4.93;5;54;-41;-336.23260000000005;-0.29;1;1
28.237;6.54;3.41;-3.42;8;25;3;-336.31809999999996;-0.23;1;1
28.262;6.34;2.23;-3.62;27;-1;10;-336.4086;-6.67;1;1
28.287;9.29;3.22;-3.07;23;-37;41;-336.4854;-6.66;1;1
28.313;6.12;2.17;-2.38;-12;2;69;-336.5473;-6.66;1;1
28.338;5.73;0.94;-3.74;-16;-6;22;-336.6408;-6.65;1;1
28.363;5.63;1.75;-4.52;-14;10;-7;-336.75379999999996;-6.63;1;1
28.392;6.35;2.47;-4.89;-22;37;0;-336.8956;-6.61;1;1
28.425;5.69;0.83;-3.48;-30;41;-17;-337.0104;-6.59;1;1
28.45;5.5;2.18;-3.05;-29;25;-35;-337.0867;-6.56;1;1
28.476;6.24;3.74;-3.16;-27;17;3;-337.1688;-6.56;1;1
28.501;5.88;-0.26;-3.89;-36;13;4;-337.2622;-6.53;1;1
28.526;7.37;0.43;-6.66;-42;24;-18;-337.4353;-6.51;1;1
28.552;4.01;2.51;-6.07;-14;66;0;-337.5932;-6.49;1;1
28.584;6.17;4.14;-3.07;33;29;17;-337.6914;-6.45;1;1
28.614;5.0;-0.6;-2.95;13;4;-19;-337.7799;-6.40;1;1
28.644;5.63;3.27;-2.69;-16;34;-63;-337.8606;-6.40;1;1
28.675;5.09;3.23;-3.49;-35;33;13;-337.9688;-6.38;1;1
28.702;4.73;-0.04;-3.51;-43;2;3;-338.0636;-6.35;1;1
28.725;4.05;0.12;-4.06;-37;-7;-1;-338.157;-6.30;1;1
28.75;4.86;1.64;-2.08;-28;-13;34;-338.209;-6.28;1;1
28.776;4.61;0.03;-3.27;-30;-10;29;-338.29400000000004;-6.28;1;1
28.8;4.4;-3.43;-2.62;-35;-25;27;-338.3569;-6.26;1;1
28.826;1.63;-3.65;-2.03;-20;-40;0;-338.4097;-6.25;1;1
28.852;4.71;2.62;-3.08;-2;-33;1;-338.48980000000006;-6.22;1;1
28.877;3.95;1.77;-2.98;11;-5;-14;-338.56419999999997;-6.22;1;1
28.903;4.73;1.8;-3.77;39;-1;-29;-338.6623;-6.19;1;1
28.928;6.19;0.24;-2.68;65;-5;-24;-338.7266;-6.18;1;1
28.953;7.82;-2.66;-1.87;65;0;110;-338.7752;-6.15;1;1
29.002;5.95;0.46;-2.66;64;114;233;-338.9056;-6.14;1;1
29.028;6.57;-0.99;-2.86;47;122;165;-338.98;-6.12;1;1
29.053;4.78;0.06;-2.08;33;99;210;-339.0299;-6.10;1;1
29.078;2.98;-1.1;-1.78;4;90;204;-339.07620000000003;-6.10;1;1
29.104;3.45;0.69;-2.56;-3;78;115;-339.1427;-6.08;1;1
29.129;3.72;-0.77;-2.46;-3;53;94;-339.20419999999996;-6.05;1;1
29.155;3.16;-0.62;-2.1;-3;41;90;-339.25879999999995;-6.02;1;1
29.18;2.72;-0.63;-1.77;0;35;69;-339.3031;-6.02;1;1
29.208;2.77;-0.52;-1.65;1;14;11;-339.3493;-6.00;1;1
29.234;3.34;-1.58;-1.96;-1;-7;0;-339.4003;-5.99;1;1
29.267;2.56;-0.79;-1.65;6;-19;0;-339.4547;-5.96;1;1
29.293;2.71;-0.65;-1.79;15;-35;-35;-339.50120000000004;-5.95;1;1
29.318;3.27;-1.04;-2.14;14;-57;-49;-339.55480000000006;-5.93;1;1
29.343;4.49;-1.65;-2.03;11;-59;-35;-339.6055;-5.93;1;1
29.369;3.74;-0.79;-1.84;15;-32;-17;-339.6533;-5.93;1;1
29.394;3.87;-0.91;-2.19;13;-16;-7;-339.7081;-5.92;1;1
29.42;4.6;-1.0;-2.08;-1;-12;23;-339.7622;-5.90;1;1
29.446;4.62;-1.17;-2.2;-14;2;50;-339.81940000000003;-5.90;1;1
29.471;4.71;-1.1;-2.12;-23;19;53;-339.87239999999997;-5.90;1;1
29.497;4.19;-1.49;-2.07;-23;33;35;-339.92620000000005;-5.90;1;1
29.531;3.57;-1.41;-2.06;-20;33;39;-339.99620000000004;-5.90;1;1
29.558;3.4;-1.82;-2.07;-25;26;42;-340.0521;-5.89;1;1
29.584;3.2;-1.9;-1.97;-20;29;42;-340.1033;-5.89;1;1
29.609;3.05;-1.69;-1.95;-13;34;30;-340.1521;-5.89;1;1
29.635;3.02;-1.79;-2.06;-12;32;25;-340.2057;-5.88;1;1
29.661;2.89;-2.4;-1.93;-21;30;37;-340.2558;-5.88;1;1
29.686;2.73;-2.42;-1.64;-26;35;40;-340.29690000000005;-5.85;1;1
29.72;0.88;-3.67;-1.65;-21;39;26;-340.353;-5.85;1;1
29.75;1.61;-3.67;-0.89;27;8;2;-340.3797;-5.85;1;1
29.779;2.36;-1.54;-1.98;14;-2;-11;-340.4371;-5.86;1;1
29.819;2.63;-2.83;-1.77;-13;9;6;-340.5079;-5.86;1;1
29.845;0.89;-3.04;-1.9;-8;4;13;-340.5554;-5.86;1;1
29.87;0.86;-2.45;-2.15;-5;-17;-6;-340.61129999999997;-5.86;1;1
29.895;1.87;-1.5;-1.52;-5;-37;-19;-340.6493;-5.88;1;1
29.92;2.3;-3.37;-1.57;-4;-33;-15;-340.6885;-5.86;1;1
29.945;2.86;-3.29;-1.76;-7;-27;-10;-340.7325;-5.86;1;1
29.971;3.23;-2.44;-2.08;-7;-20;-6;-340.7866;-5.85;1;1
29.996;2.98;-2.4;-1.92;-4;-12;-5;-340.8327;-5.85;1;1
30.021;2.93;-2.82;-2.04;-2;-8;-5;-340.8857;-5.83;1;1
30.049;2.87;-2.7;-2.07;-1;-10;-16;-340.94370000000004;-5.83;1;1
30.074;3.33;-2.41;-1.78;-1;-6;-9;-340.9882;-5.82;1;1
30.108;2.56;-3.17;-2.01;-5;-3;-3;-341.05660000000006;-5.80;1;1
30.133;2.57;-2.63;-1.95;-4;-7;-17;-341.1053;-5.80;1;1
30.158;3.23;-2.35;-1.83;0;-3;-30;-341.151;-5.80;1;1
30.184;3.39;-2.4;-1.72;6;2;-27;-341.1958;-5.80;1;1
30.208;2.85;-2.56;-1.74;5;6;-10;-341.2375;-5.79;1;1
30.234;2.64;-2.4;-1.62;6;6;-16;-341.2796;-5.79;1;1
30.26;3.08;-3.16;-1.29;8;2;-30;-341.3132;-5.79;1;1
30.285;2.76;-2.77;-2.59;8;-4;-35;-341.37800000000004;-5.78;1;1
30.31;4.04;-0.83;-2.42;16;-12;-63;-341.4385;-5.78;1;1
30.335;2.44;-0.31;-3.0;12;-26;-49;-341.51349999999996;-5.78;1;1
30.369;3.36;-3.47;-1.89;-1;-25;-15;-341.5777;-5.78;1;1
30.394;3.35;-0.4;-0.6;5;0;15;-341.5927;-5.78;1;1
30.419;2.9;-2.2;-1.8;-9;18;33;-341.6377;-5.78;1;1
30.445;2.82;-1.97;-2.25;-24;23;36;-341.69620000000003;-5.78;1;1
30.47;3.15;-2.55;-2.22;-20;14;25;-341.75169999999997;-5.79;1;1
30.495;3.62;-3.16;-1.93;-7;4;23;-341.8;-5.79;1;1
30.521;3.2;-2.54;-2.04;0;5;28;-341.853;-5.79;1;1
30.545;2.7;-2.41;-1.89;-1;10;20;-341.8984;-5.79;1;1
30.571;2.52;-2.93;-1.78;0;6;6;-341.9447;-5.78;1;1
30.597;2.81;-2.87;-2.01;1;-2;4;-341.99690000000004;-5.78;1;1
30.629;3.28;-2.4;-2.19;0;-5;13;-342.06699999999995;-5.78;1;1
30.655;3.01;-2.74;-1.85;0;0;17;-342.11510000000004;-5.78;1;1
30.681;2.32;-2.88;-2.17;2;3;15;-342.17150000000004;-5.78;1;1
30.705;2.03;-2.68;-2.66;-2;0;6;-342.2353;-5.78;1;1
30.731;2.84;-2.84;-2.5;-4;-6;5;-342.3003;-5.76;1;1
30.756;3.55;-3.23;-2.23;3;-12;14;-342.3561;-5.78;1;1
30.781;3.41;-3.46;-1.9;7;-17;11;-342.4036;-5.78;1;1
30.806;2.83;-3.26;-2.04;3;-16;3;-342.45459999999997;-5.78;1;1
30.846;2.42;-3.5;-2.69;-2;-18;8;-342.5622;-5.79;1;1
30.876;2.94;-3.12;-2.39;-2;-15;10;-342.6339;-5.79;1;1
30.906;3.14;-2.82;-2.07;5;-11;2;-342.69599999999997;-5.80;1;1
30.947;2.39;-3.16;-2.1;8;-17;-11;-342.7821;-5.80;1;1
30.972;2.91;-3.53;-1.92;4;-28;-13;-342.8301;-5.82;1;1
30.998;3.01;-3.34;-2.11;6;-30;-11;-342.885;-5.80;1;1
31.023;3.31;-2.6;-2.38;8;-14;-15;-342.94449999999995;-5.80;1;1
31.048;3.41;-2.12;-2.56;9;-3;-15;-343.00849999999997;-5.80;1;1
31.074;4.02;-2.54;-2.24;3;-11;-10;-343.06669999999997;-5.80;1;1
31.099;3.62;-3.27;-1.8;3;-10;17;-343.1117;-5.80;1;1
31.125;3.23;-2.81;-1.74;5;-1;14;-343.1569;-5.80;1;1
31.15;2.81;-2.0;-2.72;1;-11;-12;-343.225;-5.80;1;1
31.175;2.06;-2.94;-2.54;23;-28;-23;-343.2885;-5.80;1;1
31.224;3.73;-2.44;-1.94;14;-17;-3;-343.38349999999997;-5.80;1;1
31.25;3.56;-3.3;-1.9;7;-11;9;-343.43300000000005;-5.80;1;1
31.274;3.53;-4.19;-1.89;-1;6;32;-343.4783;-5.82;1;1
31.303;3.25;-2.45;-2.16;-7;15;35;-343.541;-5.82;1;1
31.329;3.26;-2.7;-2.13;-6;5;20;-343.5964;-5.82;1;1
31.354;3.75;-3.35;-1.92;4;-2;10;-343.6444;-5.82;1;1
31.38;3.88;-3.04;-1.92;9;3;23;-343.6943;-5.82;1;1
31.404;3.47;-2.73;-2.19;-1;6;27;-343.74690000000004;-5.82;1;1
31.43;3.27;-3.4;-2.1;1;3;19;-343.80150000000003;-5.82;1;1
31.564;5.96;-5.23;6.93;-25;-15;-113;-342.8728;-0.22;1;1
